"session_id","trial_number","block_name","prime","target","trial_response","trial_latency","aware_response","aware_latency","complete","all_same"
"14577746",1,"Negative","unpleasant12.jpg","pic64.jpg",1,2222,"0",285,1,0
"14577746",2,"Positive","pleasant8.jpg","pic34.jpg",0,2028,"0",216,1,0
"14577746",3,"Positive","pleasant4.jpg","pic15.jpg",1,2390,"1",778,1,0
"14577746",4,"Negative","unpleasant4.jpg","pic22.jpg",0,2864,"1",1067,1,0
"14577746",5,"Negative","unpleasant6.jpg","pic57.jpg",0,4225,"1",264,1,0
"14577746",6,"Negative","unpleasant11.jpg","pic51.jpg",1,1846,"0",486,1,0
"14577746",7,"Positive","pleasant3.jpg","pic29.jpg",1,2889,"1",332,1,0
"14577746",8,"Positive","pleasant1.jpg","pic20.jpg",1,1234,"1",101,1,0
"14577746",9,"Positive","pleasant9.jpg","pic59.jpg",1,1350,"1",299,1,0
"14577746",10,"Negative","unpleasant8.jpg","pic45.jpg",1,2373,"0",201,1,0
"14577746",11,"Positive","pleasant11.jpg","pic52.jpg",1,3608,"0",1271,1,0
"14577746",12,"Negative","unpleasant2.jpg","pic26.jpg",1,1887,"0",439,1,0
"14577746",13,"Positive","pleasant7.jpg","pic27.jpg",1,4571,"0",1258,1,0
"14577746",14,"Positive","pleasant6.jpg","pic5.jpg",1,1972,"1",690,1,0
"14577746",15,"Positive","pleasant12.jpg","pic76.jpg",1,1687,"1",1589,1,0
"14577746",16,"Negative","unpleasant9.jpg","pic3.jpg",0,1909,"1",216,1,0
"14577746",17,"Negative","unpleasant5.jpg","pic42.jpg",0,1191,"1",446,1,0
"14577746",18,"Negative","unpleasant3.jpg","pic41.jpg",0,1314,"1",101,1,0
"14577746",19,"Negative","unpleasant7.jpg","pic79.jpg",0,2305,"1",1067,1,0
"14577746",20,"Negative","unpleasant10.jpg","pic24.jpg",1,1546,"0",495,1,0
"14577746",21,"Positive","pleasant2.jpg","pic44.jpg",1,2419,"0",346,1,0
"14577746",22,"Negative","unpleasant1.jpg","pic66.jpg",0,2424,"1",643,1,0
"14577746",23,"Positive","pleasant5.jpg","pic16.jpg",0,2666,"1",72,1,0
"14577746",24,"Positive","pleasant10.jpg","pic11.jpg",1,2050,"1",1117,1,0
"14577746",25,"Negative","unpleasant4.jpg","pic60.jpg",0,2595,"1",1404,1,0
"14577746",26,"Positive","pleasant8.jpg","pic12.jpg",1,1722,"0",2083,1,0
"14577746",27,"Positive","pleasant6.jpg","pic21.jpg",1,1363,"1",429,1,0
"14577746",28,"Negative","unpleasant10.jpg","pic46.jpg",0,1927,"0",2110,1,0
"14577746",29,"Negative","unpleasant6.jpg","pic17.jpg",0,1881,"1",309,1,0
"14577746",30,"Negative","unpleasant7.jpg","pic63.jpg",0,2535,"0",1187,1,0
"14577746",31,"Positive","pleasant5.jpg","pic70.jpg",1,2931,"1",1600,1,0
"14577746",32,"Negative","unpleasant1.jpg","pic74.jpg",0,1388,"1",345,1,0
"14577746",33,"Negative","unpleasant5.jpg","pic50.jpg",0,1152,"1",151,1,0
"14577746",34,"Positive","pleasant3.jpg","pic49.jpg",1,1961,"1",392,1,0
"14577746",35,"Negative","unpleasant8.jpg","pic54.jpg",0,1424,"1",1321,1,0
"14577746",36,"Negative","unpleasant3.jpg","pic43.jpg",0,1148,"1",147,1,0
"14577746",37,"Negative","unpleasant2.jpg","pic80.jpg",0,1021,"1",195,1,0
"14577746",38,"Negative","unpleasant9.jpg","pic77.jpg",0,1089,"1",163,1,0
"14577746",39,"Negative","unpleasant11.jpg","pic1.jpg",0,2102,"1",510,1,0
"14577746",40,"Positive","pleasant4.jpg","pic47.jpg",1,1982,"1",553,1,0
"14577746",41,"Positive","pleasant12.jpg","pic55.jpg",1,2052,"1",292,1,0
"14577746",42,"Positive","pleasant10.jpg","pic73.jpg",1,1433,"1",154,1,0
"14577746",43,"Negative","unpleasant12.jpg","pic58.jpg",0,1287,"1",139,1,0
"14577746",44,"Negative","unpleasant6.jpg","pic19.jpg",0,1012,"1",174,1,0
"14577746",45,"Negative","unpleasant8.jpg","pic13.jpg",0,942,"1",91,1,0
"14577746",46,"Negative","unpleasant2.jpg","pic69.jpg",0,1098,"1",106,1,0
"14577746",47,"Negative","unpleasant1.jpg","pic6.jpg",0,1162,"1",43,1,0
"14577746",48,"Positive","pleasant7.jpg","pic67.jpg",1,1098,"1",358,1,0
"14577746",49,"Positive","pleasant11.jpg","pic35.jpg",1,1177,"1",19,1,0
"14577746",50,"Positive","pleasant1.jpg","pic28.jpg",1,1958,"1",672,1,0
"14577746",51,"Negative","unpleasant12.jpg","pic62.jpg",1,2326,"0",317,1,0
"14577746",52,"Positive","pleasant2.jpg","pic38.jpg",1,1274,"0",40,1,0
"14577746",53,"Positive","pleasant9.jpg","pic18.jpg",1,1614,"0",49,1,0
"14577746",54,"Negative","unpleasant10.jpg","pic56.jpg",1,3311,"0",290,1,0
"14577746",55,"Positive","pleasant6.jpg","pic7.jpg",1,2989,"1",261,1,0
"14577746",56,"Positive","pleasant7.jpg","pic53.jpg",1,1019,"1",39,1,0
"14577746",57,"Positive","pleasant5.jpg","pic75.jpg",1,644,"1",67,1,0
"14577746",58,"Negative","unpleasant11.jpg","pic71.jpg",0,1456,"1",28,1,0
"14577746",59,"Negative","unpleasant5.jpg","pic8.jpg",0,863,"1",133,1,0
"14577746",60,"Positive","pleasant11.jpg","pic2.jpg",1,1208,"1",236,1,0
"14577746",61,"Positive","pleasant8.jpg","pic40.jpg",1,1146,"1",133,1,0
"14577746",62,"Positive","pleasant10.jpg","pic33.jpg",1,592,"1",204,1,0
"14577746",63,"Positive","pleasant4.jpg","pic25.jpg",1,2142,"1",322,1,0
"14577746",64,"Positive","pleasant2.jpg","pic36.jpg",0,1919,"1",98,1,0
"14577746",65,"Negative","unpleasant9.jpg","pic72.jpg",0,2542,"1",181,1,0
"14577746",66,"Positive","pleasant1.jpg","pic68.jpg",1,1065,"1",544,1,0
"14577746",67,"Negative","unpleasant4.jpg","pic30.jpg",1,1098,"0",2919,1,0
"14577746",68,"Negative","unpleasant7.jpg","pic61.jpg",0,3627,"1",258,1,0
"14577746",69,"Positive","pleasant3.jpg","pic9.jpg",1,2157,"1",510,1,0
"14577746",70,"Positive","pleasant12.jpg","pic65.jpg",1,906,"1",77,1,0
"14577747",1,"Positive","pleasant12.jpg","pic12.jpg",1,3329,"1",1370,1,0
"14577747",2,"Negative","unpleasant9.jpg","pic56.jpg",1,6711,"0",1705,1,0
"14577747",3,"Negative","unpleasant10.jpg","pic57.jpg",0,2593,"1",352,1,0
"14577747",4,"Negative","unpleasant12.jpg","pic7.jpg",0,724,"1",278,1,0
"14577747",5,"Positive","pleasant5.jpg","pic64.jpg",1,1356,"1",284,1,0
"14577747",6,"Negative","unpleasant7.jpg","pic55.jpg",0,1076,"1",406,1,0
"14577747",7,"Positive","pleasant4.jpg","pic16.jpg",0,1120,"1",314,1,0
"14577747",8,"Negative","unpleasant5.jpg","pic4.jpg",0,943,"1",312,1,0
"14577747",9,"Positive","pleasant6.jpg","pic75.jpg",0,1535,"1",342,1,0
"14577747",10,"Positive","pleasant9.jpg","pic80.jpg",1,828,"0",262,1,0
"14577747",11,"Positive","pleasant10.jpg","pic39.jpg",1,745,"1",472,1,0
"14577747",12,"Negative","unpleasant4.jpg","pic70.jpg",0,1288,"1",1138,1,0
"14577747",13,"Positive","pleasant3.jpg","pic15.jpg",1,1409,"1",326,1,0
"14577747",14,"Positive","pleasant8.jpg","pic74.jpg",0,2908,"1",375,1,0
"14577747",15,"Positive","pleasant1.jpg","pic14.jpg",1,1394,"1",280,1,0
"14577747",16,"Positive","pleasant2.jpg","pic60.jpg",1,1312,"1",337,1,0
"14577747",17,"Negative","unpleasant11.jpg","pic28.jpg",0,895,"1",344,1,0
"14577747",18,"Positive","pleasant11.jpg","pic67.jpg",1,3518,"1",199,1,0
"14577747",19,"Negative","unpleasant2.jpg","pic50.jpg",0,2274,"1",270,1,0
"14577747",20,"Negative","unpleasant3.jpg","pic72.jpg",0,726,"1",271,1,0
"14577747",21,"Negative","unpleasant1.jpg","pic37.jpg",0,566,"1",179,1,0
"14577747",22,"Positive","pleasant7.jpg","pic32.jpg",0,898,"1",147,1,0
"14577747",23,"Positive","pleasant12.jpg","pic59.jpg",0,768,"0",2862,1,0
"14577747",24,"Positive","pleasant3.jpg","pic3.jpg",0,705,"0",3715,1,0
"14577747",25,"Negative","unpleasant6.jpg","pic68.jpg",0,1226,"1",446,1,0
"14577747",26,"Negative","unpleasant8.jpg","pic29.jpg",0,575,"1",262,1,0
"14577747",27,"Negative","unpleasant5.jpg","pic17.jpg",0,574,"1",251,1,0
"14577747",28,"Positive","pleasant5.jpg","pic44.jpg",1,1452,"1",2063,1,0
"14577747",29,"Negative","unpleasant3.jpg","pic79.jpg",0,866,"1",420,1,0
"14577747",30,"Negative","unpleasant2.jpg","pic76.jpg",0,613,"1",299,1,0
"14577747",31,"Negative","unpleasant7.jpg","pic22.jpg",0,626,"1",254,1,0
"14577747",32,"Negative","unpleasant6.jpg","pic51.jpg",0,583,"1",228,1,0
"14577747",33,"Negative","unpleasant1.jpg","pic24.jpg",0,639,"1",259,1,0
"14577747",34,"Positive","pleasant11.jpg","pic69.jpg",1,835,"1",303,1,0
"14577747",35,"Negative","unpleasant4.jpg","pic48.jpg",0,518,"1",319,1,0
"14577747",36,"Positive","pleasant9.jpg","pic1.jpg",1,1750,"1",342,1,0
"14577747",37,"Positive","pleasant7.jpg","pic71.jpg",0,883,"1",350,1,0
"14577747",38,"Negative","unpleasant12.jpg","pic62.jpg",0,587,"1",73,1,0
"14577747",39,"Negative","unpleasant8.jpg","pic27.jpg",0,552,"1",63,1,0
"14577747",40,"Positive","pleasant1.jpg","pic61.jpg",1,944,"1",648,1,0
"14577747",41,"Positive","pleasant2.jpg","pic65.jpg",1,928,"1",305,1,0
"14577747",42,"Positive","pleasant10.jpg","pic20.jpg",1,673,"1",294,1,0
"14577747",43,"Negative","unpleasant11.jpg","pic42.jpg",0,873,"1",411,1,0
"14577747",44,"Positive","pleasant6.jpg","pic53.jpg",0,934,"1",327,1,0
"14577747",45,"Positive","pleasant8.jpg","pic49.jpg",0,542,"1",269,1,0
"14577747",46,"Negative","unpleasant10.jpg","pic46.jpg",0,453,"1",288,1,0
"14577747",47,"Negative","unpleasant9.jpg","pic26.jpg",0,465,"1",346,1,0
"14577747",48,"Positive","pleasant4.jpg","pic38.jpg",0,648,"1",243,1,0
"14577747",49,"Positive","pleasant10.jpg","pic9.jpg",1,884,"1",855,1,0
"14577747",50,"Negative","unpleasant12.jpg","pic41.jpg",0,608,"1",437,1,0
"14577747",51,"Negative","unpleasant6.jpg","pic66.jpg",0,959,"1",318,1,0
"14577747",52,"Positive","pleasant3.jpg","pic23.jpg",1,3131,"1",893,1,0
"14577747",53,"Negative","unpleasant10.jpg","pic36.jpg",0,1509,"1",319,1,0
"14577747",54,"Negative","unpleasant5.jpg","pic19.jpg",0,525,"1",245,1,0
"14577747",55,"Positive","pleasant6.jpg","pic8.jpg",0,958,"1",293,1,0
"14577747",56,"Negative","unpleasant11.jpg","pic40.jpg",0,493,"1",190,1,0
"14577747",57,"Positive","pleasant4.jpg","pic43.jpg",0,586,"1",192,1,0
"14577747",58,"Positive","pleasant5.jpg","pic25.jpg",1,1139,"1",516,1,0
"14577747",59,"Positive","pleasant9.jpg","pic35.jpg",1,986,"1",279,1,0
"14577747",60,"Negative","unpleasant9.jpg","pic10.jpg",0,904,"1",353,1,0
"14577747",61,"Negative","unpleasant4.jpg","pic34.jpg",0,350,"1",245,1,0
"14577747",62,"Negative","unpleasant1.jpg","pic11.jpg",0,119,"1",343,1,0
"14577747",63,"Positive","pleasant2.jpg","pic6.jpg",0,588,"0",1145,1,0
"14577747",64,"Positive","pleasant8.jpg","pic58.jpg",0,537,"1",48,1,0
"14577747",65,"Positive","pleasant1.jpg","pic33.jpg",1,664,"1",723,1,0
"14577747",66,"Negative","unpleasant2.jpg","pic52.jpg",0,585,"1",304,1,0
"14577747",67,"Negative","unpleasant3.jpg","pic13.jpg",0,1911,"1",312,1,0
"14577747",68,"Positive","pleasant7.jpg","pic77.jpg",0,519,"1",270,1,0
"14577747",69,"Negative","unpleasant7.jpg","pic45.jpg",0,568,"1",118,1,0
"14577747",70,"Positive","pleasant12.jpg","pic21.jpg",1,972,"1",282,1,0
"14577752",1,"Positive","pleasant7.jpg","pic49.jpg",1,3495,"0",5728,1,0
"14577752",2,"Negative","unpleasant9.jpg","pic58.jpg",1,3136,"0",612,1,0
"14577752",3,"Negative","unpleasant11.jpg","pic20.jpg",0,2897,"0",3022,1,0
"14577752",4,"Positive","pleasant8.jpg","pic56.jpg",0,5032,"1",3801,1,0
"14577752",5,"Positive","pleasant5.jpg","pic17.jpg",0,4324,"0",357,1,0
"14577752",6,"Positive","pleasant12.jpg","pic52.jpg",1,5271,"1",2085,1,0
"14577752",7,"Negative","unpleasant12.jpg","pic13.jpg",0,3094,"1",2711,1,0
"14577752",8,"Positive","pleasant10.jpg","pic70.jpg",1,3449,"1",264,1,0
"14577752",9,"Positive","pleasant3.jpg","pic59.jpg",1,4325,"1",516,1,0
"14577752",10,"Negative","unpleasant4.jpg","pic45.jpg",0,3179,"0",348,1,0
"14577752",11,"Positive","pleasant1.jpg","pic40.jpg",0,2994,"0",280,1,0
"14577752",12,"Positive","pleasant9.jpg","pic42.jpg",1,2253,"1",1731,1,0
"14577752",13,"Positive","pleasant6.jpg","pic67.jpg",0,2973,"0",432,1,0
"14577752",14,"Positive","pleasant11.jpg","pic1.jpg",0,4203,"0",3698,1,0
"14577752",15,"Positive","pleasant2.jpg","pic78.jpg",1,1932,"1",1603,1,0
"14577752",16,"Negative","unpleasant5.jpg","pic11.jpg",0,2540,"0",390,1,0
"14577752",17,"Negative","unpleasant6.jpg","pic23.jpg",1,1589,"0",659,1,0
"14577752",18,"Negative","unpleasant8.jpg","pic44.jpg",0,3624,"0",1972,1,0
"14577752",19,"Negative","unpleasant2.jpg","pic68.jpg",0,2996,"1",324,1,0
"14577752",20,"Positive","pleasant4.jpg","pic69.jpg",1,1563,"0",1290,1,0
"14577752",21,"Positive","pleasant7.jpg","pic79.jpg",1,2799,"0",801,1,0
"14577752",22,"Negative","unpleasant10.jpg","pic30.jpg",1,1834,"0",734,1,0
"14577752",23,"Negative","unpleasant1.jpg","pic29.jpg",0,1114,"1",403,1,0
"14577752",24,"Negative","unpleasant7.jpg","pic28.jpg",1,1857,"0",412,1,0
"14577752",25,"Negative","unpleasant3.jpg","pic35.jpg",0,2893,"1",831,1,0
"14577752",26,"Positive","pleasant5.jpg","pic3.jpg",0,1620,"0",250,1,0
"14577752",27,"Positive","pleasant9.jpg","pic21.jpg",0,2214,"0",301,1,0
"14577752",28,"Negative","unpleasant8.jpg","pic47.jpg",0,1302,"0",242,1,0
"14577752",29,"Negative","unpleasant6.jpg","pic73.jpg",0,2337,"0",276,1,0
"14577752",30,"Negative","unpleasant1.jpg","pic31.jpg",0,1632,"1",463,1,0
"14577752",31,"Positive","pleasant4.jpg","pic12.jpg",1,1609,"0",369,1,0
"14577752",32,"Negative","unpleasant3.jpg","pic7.jpg",0,1671,"1",339,1,0
"14577752",33,"Positive","pleasant2.jpg","pic61.jpg",1,2014,"1",1384,1,0
"14577752",34,"Positive","pleasant8.jpg","pic19.jpg",1,2165,"0",424,1,0
"14577752",35,"Negative","unpleasant4.jpg","pic25.jpg",1,1358,"0",1995,1,0
"14577752",36,"Positive","pleasant12.jpg","pic55.jpg",1,3350,"0",329,1,0
"14577752",37,"Positive","pleasant6.jpg","pic66.jpg",0,1321,"0",558,1,0
"14577752",38,"Negative","unpleasant9.jpg","pic6.jpg",1,1325,"0",623,1,0
"14577752",39,"Negative","unpleasant5.jpg","pic26.jpg",1,2013,"0",531,1,0
"14577752",40,"Negative","unpleasant2.jpg","pic72.jpg",0,1133,"1",751,1,0
"14577752",41,"Positive","pleasant10.jpg","pic65.jpg",1,1472,"0",959,1,0
"14577752",42,"Negative","unpleasant11.jpg","pic27.jpg",0,1428,"0",911,1,0
"14577752",43,"Positive","pleasant3.jpg","pic80.jpg",1,1490,"1",1741,1,0
"14577752",44,"Negative","unpleasant10.jpg","pic22.jpg",1,1368,"0",734,1,0
"14577752",45,"Positive","pleasant1.jpg","pic15.jpg",0,1100,"0",1116,1,0
"14577752",46,"Positive","pleasant11.jpg","pic2.jpg",0,1810,"0",571,1,0
"14577752",47,"Positive","pleasant12.jpg","pic8.jpg",0,3121,"1",1444,1,0
"14577752",48,"Positive","pleasant11.jpg","pic16.jpg",0,1317,"0",2219,1,0
"14577752",49,"Negative","unpleasant7.jpg","pic60.jpg",1,1690,"0",1220,1,0
"14577752",50,"Negative","unpleasant12.jpg","pic41.jpg",1,1217,"0",762,1,0
"14577752",51,"Positive","pleasant2.jpg","pic46.jpg",0,1092,"0",269,1,0
"14577752",52,"Positive","pleasant8.jpg","pic39.jpg",0,2149,"0",458,1,0
"14577752",53,"Negative","unpleasant7.jpg","pic43.jpg",0,1555,"1",361,1,0
"14577752",54,"Negative","unpleasant2.jpg","pic62.jpg",1,1429,"0",204,1,0
"14577752",55,"Negative","unpleasant1.jpg","pic33.jpg",0,1183,"1",522,1,0
"14577752",56,"Positive","pleasant6.jpg","pic76.jpg",1,1189,"0",411,1,0
"14577752",57,"Positive","pleasant7.jpg","pic24.jpg",0,1859,"0",574,1,0
"14577752",58,"Positive","pleasant3.jpg","pic48.jpg",1,1293,"1",1034,1,0
"14577752",59,"Negative","unpleasant8.jpg","pic18.jpg",0,1021,"0",1458,1,0
"14577752",60,"Positive","pleasant10.jpg","pic50.jpg",1,1131,"1",495,1,0
"14577752",61,"Positive","pleasant4.jpg","pic34.jpg",0,3836,"0",227,1,0
"14577752",62,"Positive","pleasant1.jpg","pic36.jpg",0,1251,"0",302,1,0
"14577752",63,"Negative","unpleasant5.jpg","pic57.jpg",1,1820,"0",202,1,0
"14577752",64,"Negative","unpleasant3.jpg","pic77.jpg",1,1476,"0",491,1,0
"14577752",65,"Positive","pleasant9.jpg","pic64.jpg",0,982,"0",429,1,0
"14577752",66,"Negative","unpleasant6.jpg","pic74.jpg",1,2531,"0",784,1,0
"14577752",67,"Negative","unpleasant4.jpg","pic37.jpg",0,2020,"0",413,1,0
"14577752",68,"Negative","unpleasant9.jpg","pic4.jpg",0,2780,"0",310,1,0
"14577752",69,"Negative","unpleasant11.jpg","pic9.jpg",0,1255,"0",288,1,0
"14577752",70,"Negative","unpleasant10.jpg","pic63.jpg",0,2008,"0",403,1,0
"14577758",1,"Positive","pleasant9.jpg","pic29.jpg",1,8183,"0",1930,1,0
"14577758",2,"Positive","pleasant3.jpg","pic22.jpg",1,1823,"0",2620,1,0
"14577758",3,"Negative","unpleasant10.jpg","pic18.jpg",0,1852,"1",3923,1,0
"14577758",4,"Positive","pleasant12.jpg","pic44.jpg",1,2814,"1",7595,1,0
"14577758",5,"Positive","pleasant6.jpg","pic30.jpg",1,6137,"0",982,1,0
"14577758",6,"Positive","pleasant10.jpg","pic15.jpg",1,1833,"0",387,1,0
"14577758",7,"Negative","unpleasant2.jpg","pic8.jpg",0,1206,"1",446,1,0
"14577758",8,"Negative","unpleasant3.jpg","pic80.jpg",0,685,"1",232,1,0
"14577758",9,"Negative","unpleasant9.jpg","pic54.jpg",0,1090,"1",1193,1,0
"14577758",10,"Positive","pleasant5.jpg","pic35.jpg",1,4083,"0",4892,1,0
"14577758",11,"Positive","pleasant2.jpg","pic39.jpg",1,2173,"0",1395,1,0
"14577758",12,"Negative","unpleasant12.jpg","pic26.jpg",1,965,"0",252,1,0
"14577758",13,"Positive","pleasant4.jpg","pic78.jpg",0,1107,"1",539,1,0
"14577758",14,"Negative","unpleasant1.jpg","pic50.jpg",0,669,"1",1151,1,0
"14577758",15,"Negative","unpleasant4.jpg","pic71.jpg",0,817,"1",104,1,0
"14577758",16,"Negative","unpleasant5.jpg","pic9.jpg",0,883,"1",764,1,0
"14577758",17,"Positive","pleasant8.jpg","pic38.jpg",0,940,"1",4063,1,0
"14577758",18,"Positive","pleasant7.jpg","pic70.jpg",1,2125,"0",1328,1,0
"14577758",19,"Negative","unpleasant8.jpg","pic61.jpg",0,884,"1",127,1,0
"14577758",20,"Negative","unpleasant6.jpg","pic34.jpg",0,737,"1",70,1,0
"14577758",21,"Negative","unpleasant7.jpg","pic56.jpg",0,658,"1",790,1,0
"14577758",22,"Negative","unpleasant11.jpg","pic76.jpg",0,726,"1",404,1,0
"14577758",23,"Positive","pleasant1.jpg","pic47.jpg",1,1948,"1",1067,1,0
"14577758",24,"Negative","unpleasant11.jpg","pic2.jpg",0,1099,"1",468,1,0
"14577758",25,"Positive","pleasant11.jpg","pic72.jpg",1,1424,"0",1481,1,0
"14577758",26,"Positive","pleasant3.jpg","pic65.jpg",1,825,"1",2470,1,0
"14577758",27,"Negative","unpleasant8.jpg","pic19.jpg",0,1404,"1",598,1,0
"14577758",28,"Negative","unpleasant7.jpg","pic25.jpg",0,671,"1",290,1,0
"14577758",29,"Positive","pleasant1.jpg","pic69.jpg",1,2140,"1",32,1,0
"14577758",30,"Positive","pleasant8.jpg","pic6.jpg",1,2134,"1",416,1,0
"14577758",31,"Negative","unpleasant10.jpg","pic32.jpg",0,619,"1",296,1,0
"14577758",32,"Negative","unpleasant12.jpg","pic51.jpg",0,1197,"1",387,1,0
"14577758",33,"Positive","pleasant9.jpg","pic77.jpg",0,553,"1",659,1,0
"14577758",34,"Positive","pleasant2.jpg","pic7.jpg",1,493,"1",305,1,0
"14577758",35,"Negative","unpleasant4.jpg","pic40.jpg",0,725,"1",95,1,0
"14577758",36,"Negative","unpleasant1.jpg","pic58.jpg",0,534,"1",87,1,0
"14577758",37,"Positive","pleasant6.jpg","pic68.jpg",1,862,"1",590,1,0
"14577758",38,"Negative","unpleasant9.jpg","pic37.jpg",0,710,"1",26,1,0
"14577758",39,"Positive","pleasant4.jpg","pic59.jpg",0,985,"1",31,1,0
"14577758",40,"Negative","unpleasant5.jpg","pic10.jpg",0,497,"1",30,1,0
"14577758",41,"Positive","pleasant11.jpg","pic52.jpg",1,471,"1",18,1,0
"14577758",42,"Positive","pleasant10.jpg","pic41.jpg",1,808,"1",119,1,0
"14577758",43,"Negative","unpleasant2.jpg","pic48.jpg",0,418,"1",47,1,0
"14577758",44,"Positive","pleasant5.jpg","pic57.jpg",1,686,"1",58,1,0
"14577758",45,"Positive","pleasant7.jpg","pic62.jpg",1,497,"1",74,1,0
"14577758",46,"Positive","pleasant12.jpg","pic13.jpg",1,601,"1",117,1,0
"14577758",47,"Negative","unpleasant3.jpg","pic66.jpg",0,535,"1",587,1,0
"14577758",48,"Negative","unpleasant6.jpg","pic3.jpg",0,594,"1",83,1,0
"14577758",49,"Negative","unpleasant6.jpg","pic73.jpg",0,485,"1",99,1,0
"14577758",50,"Negative","unpleasant4.jpg","pic63.jpg",0,504,"1",11,1,0
"14577758",51,"Positive","pleasant11.jpg","pic36.jpg",1,472,"1",528,1,0
"14577758",52,"Negative","unpleasant2.jpg","pic79.jpg",0,357,"1",173,1,0
"14577758",53,"Positive","pleasant12.jpg","pic24.jpg",1,652,"1",139,1,0
"14577758",54,"Positive","pleasant4.jpg","pic28.jpg",0,384,"1",6,1,0
"14577758",55,"Negative","unpleasant12.jpg","pic45.jpg",0,392,"1",726,1,0
"14577758",56,"Negative","unpleasant9.jpg","pic53.jpg",0,680,"1",556,1,0
"14577758",57,"Positive","pleasant6.jpg","pic11.jpg",1,366,"1",6,1,0
"14577758",58,"Positive","pleasant7.jpg","pic12.jpg",1,457,"1",21,1,0
"14577758",59,"Positive","pleasant9.jpg","pic75.jpg",1,1404,"1",673,1,0
"14577758",60,"Positive","pleasant10.jpg","pic42.jpg",1,478,"1",64,1,0
"14577758",61,"Negative","unpleasant7.jpg","pic43.jpg",0,1615,"1",10,1,0
"14577758",62,"Positive","pleasant2.jpg","pic46.jpg",1,539,"1",605,1,0
"14577758",63,"Positive","pleasant8.jpg","pic55.jpg",1,928,"1",148,1,0
"14577758",64,"Negative","unpleasant5.jpg","pic23.jpg",0,474,"1",488,1,0
"14577758",65,"Negative","unpleasant8.jpg","pic60.jpg",0,1089,"1",340,1,0
"14577758",66,"Negative","unpleasant1.jpg","pic4.jpg",0,394,"1",131,1,0
"14577758",67,"Negative","unpleasant3.jpg","pic21.jpg",0,414,"1",118,1,0
"14577758",68,"Positive","pleasant3.jpg","pic17.jpg",1,604,"1",204,1,0
"14577758",69,"Negative","unpleasant10.jpg","pic64.jpg",0,1516,"1",580,1,0
"14577758",70,"Positive","pleasant1.jpg","pic74.jpg",1,411,"1",277,1,0
"14577763",1,"Negative","unpleasant10.jpg","pic5.jpg",0,2932,"0",1634,1,0
"14577763",2,"Positive","pleasant4.jpg","pic34.jpg",1,1733,"0",1277,1,0
"14577763",3,"Positive","pleasant6.jpg","pic8.jpg",1,1878,"0",808,1,0
"14577763",4,"Negative","unpleasant5.jpg","pic72.jpg",0,1755,"0",1216,1,0
"14577763",5,"Positive","pleasant2.jpg","pic66.jpg",1,1340,"0",2076,1,0
"14577763",6,"Positive","pleasant12.jpg","pic53.jpg",1,1286,"0",767,1,0
"14577763",7,"Positive","pleasant8.jpg","pic32.jpg",1,3523,"0",492,1,0
"14577763",8,"Positive","pleasant11.jpg","pic20.jpg",1,1282,"0",709,1,0
"14577763",9,"Positive","pleasant9.jpg","pic11.jpg",1,1421,"0",640,1,0
"14577763",10,"Positive","pleasant1.jpg","pic56.jpg",1,1283,"0",624,1,0
"14577763",11,"Negative","unpleasant7.jpg","pic71.jpg",0,2056,"0",698,1,0
"14577763",12,"Negative","unpleasant9.jpg","pic76.jpg",0,1065,"0",491,1,0
"14577763",13,"Negative","unpleasant2.jpg","pic25.jpg",0,1051,"0",574,1,0
"14577763",14,"Negative","unpleasant4.jpg","pic44.jpg",0,595,"0",520,1,0
"14577763",15,"Positive","pleasant7.jpg","pic80.jpg",1,1182,"0",724,1,0
"14577763",16,"Positive","pleasant5.jpg","pic29.jpg",1,1540,"0",1010,1,0
"14577763",17,"Negative","unpleasant11.jpg","pic4.jpg",1,1293,"0",718,1,0
"14577763",18,"Negative","unpleasant6.jpg","pic45.jpg",0,1149,"0",547,1,0
"14577763",19,"Negative","unpleasant1.jpg","pic77.jpg",0,770,"0",513,1,0
"14577763",20,"Positive","pleasant3.jpg","pic58.jpg",1,918,"0",695,1,0
"14577763",21,"Positive","pleasant10.jpg","pic1.jpg",1,1053,"0",466,1,0
"14577763",22,"Negative","unpleasant3.jpg","pic59.jpg",0,682,"0",444,1,0
"14577763",23,"Positive","pleasant8.jpg","pic47.jpg",1,933,"0",462,1,0
"14577763",24,"Negative","unpleasant12.jpg","pic33.jpg",1,1127,"0",413,1,0
"14577763",25,"Positive","pleasant10.jpg","pic75.jpg",1,1080,"0",451,1,0
"14577763",26,"Negative","unpleasant8.jpg","pic13.jpg",0,708,"0",452,1,0
"14577763",27,"Positive","pleasant12.jpg","pic22.jpg",1,1614,"0",442,1,0
"14577763",28,"Positive","pleasant3.jpg","pic39.jpg",1,819,"0",432,1,0
"14577763",29,"Positive","pleasant1.jpg","pic74.jpg",1,658,"0",284,1,0
"14577763",30,"Positive","pleasant5.jpg","pic42.jpg",1,716,"0",420,1,0
"14577763",31,"Negative","unpleasant11.jpg","pic50.jpg",1,782,"0",356,1,0
"14577763",32,"Negative","unpleasant2.jpg","pic12.jpg",0,946,"0",96,1,0
"14577763",33,"Negative","unpleasant7.jpg","pic40.jpg",0,768,"0",214,1,0
"14577763",34,"Positive","pleasant2.jpg","pic63.jpg",1,720,"0",105,1,0
"14577763",35,"Positive","pleasant4.jpg","pic64.jpg",1,1479,"0",409,1,0
"14577763",36,"Positive","pleasant6.jpg","pic41.jpg",1,813,"0",393,1,0
"14577763",37,"Negative","unpleasant3.jpg","pic61.jpg",0,613,"0",170,1,0
"14577763",38,"Positive","pleasant11.jpg","pic46.jpg",1,1884,"0",535,1,0
"14577763",39,"Negative","unpleasant5.jpg","pic67.jpg",0,820,"0",402,1,0
"14577763",40,"Negative","unpleasant12.jpg","pic24.jpg",0,2788,"0",369,1,0
"14577763",41,"Positive","pleasant9.jpg","pic17.jpg",1,916,"0",215,1,0
"14577763",42,"Negative","unpleasant6.jpg","pic70.jpg",0,736,"0",444,1,0
"14577763",43,"Negative","unpleasant4.jpg","pic21.jpg",1,1025,"0",1773,1,0
"14577763",44,"Positive","pleasant7.jpg","pic51.jpg",1,739,"0",465,1,0
"14577763",45,"Positive","pleasant11.jpg","pic7.jpg",1,641,"0",276,1,0
"14577763",46,"Positive","pleasant10.jpg","pic23.jpg",1,1309,"0",549,1,0
"14577763",47,"Positive","pleasant4.jpg","pic48.jpg",1,2179,"0",49,1,0
"14577763",48,"Positive","pleasant12.jpg","pic18.jpg",1,851,"0",461,1,0
"14577763",49,"Positive","pleasant3.jpg","pic9.jpg",1,604,"0",58,1,0
"14577763",50,"Negative","unpleasant8.jpg","pic69.jpg",0,515,"0",2267,1,0
"14577763",51,"Positive","pleasant2.jpg","pic57.jpg",1,851,"0",255,1,0
"14577763",52,"Negative","unpleasant9.jpg","pic14.jpg",1,1960,"0",416,1,0
"14577763",53,"Positive","pleasant7.jpg","pic38.jpg",1,666,"0",523,1,0
"14577763",54,"Negative","unpleasant10.jpg","pic49.jpg",0,778,"0",393,1,0
"14577763",55,"Negative","unpleasant1.jpg","pic60.jpg",0,676,"0",358,1,0
"14577763",56,"Negative","unpleasant7.jpg","pic68.jpg",0,858,"0",278,1,0
"14577763",57,"Positive","pleasant5.jpg","pic27.jpg",1,734,"0",317,1,0
"14577763",58,"Negative","unpleasant3.jpg","pic30.jpg",0,630,"0",487,1,0
"14577763",59,"Negative","unpleasant9.jpg","pic19.jpg",0,1111,"0",440,1,0
"14577763",60,"Positive","pleasant1.jpg","pic28.jpg",1,651,"0",413,1,0
"14577763",61,"Positive","pleasant8.jpg","pic35.jpg",1,777,"0",341,1,0
"14577763",62,"Negative","unpleasant8.jpg","pic2.jpg",0,635,"0",343,1,0
"14577763",63,"Negative","unpleasant5.jpg","pic65.jpg",0,693,"0",341,1,0
"14577763",64,"Negative","unpleasant6.jpg","pic73.jpg",0,884,"0",380,1,0
"14577763",65,"Negative","unpleasant11.jpg","pic37.jpg",1,752,"0",392,1,0
"14577763",66,"Positive","pleasant9.jpg","pic26.jpg",1,851,"0",302,1,0
"14577763",67,"Negative","unpleasant1.jpg","pic55.jpg",0,517,"0",142,1,0
"14577763",68,"Negative","unpleasant2.jpg","pic79.jpg",0,732,"0",292,1,0
"14577763",69,"Negative","unpleasant10.jpg","pic6.jpg",1,779,"0",1186,1,0
"14577763",70,"Negative","unpleasant12.jpg","pic36.jpg",1,1629,"0",393,1,0
"14577790",1,"Positive","pleasant1.jpg","pic26.jpg",0,1965,"0",851,1,0
"14577790",2,"Positive","pleasant10.jpg","pic16.jpg",0,1171,"0",13855,1,0
"14577790",3,"Negative","unpleasant3.jpg","pic49.jpg",1,4084,"0",4114,1,0
"14577790",4,"Negative","unpleasant10.jpg","pic37.jpg",0,8579,"0",269,1,0
"14577790",5,"Positive","pleasant6.jpg","pic66.jpg",0,1696,"0",1817,1,0
"14577790",6,"Negative","unpleasant5.jpg","pic15.jpg",0,2822,"1",1193,1,0
"14577790",7,"Positive","pleasant7.jpg","pic59.jpg",1,1849,"0",618,1,0
"14577790",8,"Positive","pleasant4.jpg","pic30.jpg",0,5193,"1",1011,1,0
"14577790",9,"Positive","pleasant5.jpg","pic63.jpg",0,2001,"0",988,1,0
"14577790",10,"Negative","unpleasant1.jpg","pic9.jpg",1,5267,"0",1107,1,0
"14577790",11,"Positive","pleasant11.jpg","pic60.jpg",1,2080,"0",1002,1,0
"14577790",12,"Positive","pleasant8.jpg","pic27.jpg",1,1826,"1",304,1,0
"14577790",13,"Positive","pleasant9.jpg","pic53.jpg",0,13110,"0",1021,1,0
"14577790",14,"Positive","pleasant12.jpg","pic19.jpg",1,3962,"1",929,1,0
"14577790",15,"Negative","unpleasant4.jpg","pic38.jpg",0,1709,"1",1717,1,0
"14577790",16,"Positive","pleasant2.jpg","pic23.jpg",1,3720,"1",269,1,0
"14577790",17,"Positive","pleasant3.jpg","pic79.jpg",1,3337,"0",330,1,0
"14577790",18,"Positive","pleasant11.jpg","pic32.jpg",1,1664,"1",321,1,0
"14577790",19,"Negative","unpleasant12.jpg","pic31.jpg",1,3948,"0",330,1,0
"14577790",20,"Negative","unpleasant8.jpg","pic52.jpg",0,2913,"1",395,1,0
"14577790",21,"Positive","pleasant12.jpg","pic72.jpg",0,2623,"0",722,1,0
"14577790",22,"Negative","unpleasant11.jpg","pic67.jpg",1,1892,"1",6627,1,0
"14577790",23,"Negative","unpleasant9.jpg","pic18.jpg",0,2306,"1",392,1,0
"14577790",24,"Positive","pleasant4.jpg","pic14.jpg",1,2326,"1",412,1,0
"14577790",25,"Positive","pleasant3.jpg","pic43.jpg",1,1425,"1",376,1,0
"14577790",26,"Negative","unpleasant6.jpg","pic35.jpg",1,3966,"0",87,1,0
"14577790",27,"Negative","unpleasant2.jpg","pic55.jpg",0,1650,"1",1316,1,0
"14577790",28,"Positive","pleasant1.jpg","pic58.jpg",1,1195,"1",357,1,0
"14577790",29,"Negative","unpleasant7.jpg","pic51.jpg",1,2389,"1",636,1,0
"14577790",30,"Negative","unpleasant7.jpg","pic45.jpg",1,1037,"1",108,1,0
"14577790",31,"Negative","unpleasant12.jpg","pic77.jpg",0,2187,"1",1341,1,0
"14577790",32,"Negative","unpleasant3.jpg","pic73.jpg",1,2354,"0",150,1,0
"14577790",33,"Negative","unpleasant1.jpg","pic65.jpg",0,2154,"1",347,1,0
"14577790",34,"Negative","unpleasant11.jpg","pic68.jpg",1,1123,"0",436,1,0
"14577790",35,"Negative","unpleasant6.jpg","pic47.jpg",1,2642,"0",186,1,0
"14577790",36,"Negative","unpleasant2.jpg","pic75.jpg",0,1368,"0",500,1,0
"14577790",37,"Negative","unpleasant10.jpg","pic74.jpg",1,1250,"0",6538,1,0
"14577790",38,"Negative","unpleasant9.jpg","pic7.jpg",0,2226,"1",367,1,0
"14577790",39,"Positive","pleasant9.jpg","pic20.jpg",1,1627,"1",179,1,0
"14577790",40,"Negative","unpleasant4.jpg","pic17.jpg",0,2047,"1",541,1,0
"14577790",41,"Negative","unpleasant8.jpg","pic50.jpg",0,2194,"1",530,1,0
"14577790",42,"Negative","unpleasant5.jpg","pic3.jpg",1,2602,"0",385,1,0
"14577790",43,"Negative","unpleasant12.jpg","pic44.jpg",0,1218,"1",255,1,0
"14577790",44,"Positive","pleasant2.jpg","pic8.jpg",1,2632,"1",819,1,0
"14577790",45,"Negative","unpleasant7.jpg","pic70.jpg",0,1428,"1",499,1,0
"14577790",46,"Positive","pleasant8.jpg","pic56.jpg",1,1965,"1",1365,1,0
"14577790",47,"Negative","unpleasant2.jpg","pic21.jpg",1,3632,"0",876,1,0
"14577790",48,"Negative","unpleasant3.jpg","pic57.jpg",1,2429,"0",509,1,0
"14577790",49,"Negative","unpleasant1.jpg","pic24.jpg",1,1126,"0",166,1,0
"14577790",50,"Negative","unpleasant11.jpg","pic48.jpg",0,1640,"1",886,1,0
"14577790",51,"Positive","pleasant10.jpg","pic28.jpg",1,1589,"1",907,1,0
"14577790",52,"Positive","pleasant5.jpg","pic5.jpg",0,1871,"0",151,1,0
"14577790",53,"Positive","pleasant6.jpg","pic42.jpg",1,1812,"1",154,1,0
"14577790",54,"Positive","pleasant7.jpg","pic36.jpg",1,1427,"1",43,1,0
"14577790",55,"Positive","pleasant2.jpg","pic4.jpg",1,1071,"1",1912,1,0
"14577790",56,"Negative","unpleasant10.jpg","pic34.jpg",0,1078,"1",358,1,0
"14577790",57,"Positive","pleasant1.jpg","pic54.jpg",1,977,"1",676,1,0
"14577790",58,"Positive","pleasant5.jpg","pic76.jpg",1,1449,"1",166,1,0
"14577790",59,"Negative","unpleasant4.jpg","pic62.jpg",0,2981,"0",801,1,0
"14577790",60,"Negative","unpleasant6.jpg","pic12.jpg",1,1210,"0",462,1,0
"14577790",61,"Positive","pleasant8.jpg","pic41.jpg",1,1089,"0",663,1,0
"14577790",62,"Positive","pleasant7.jpg","pic33.jpg",1,1188,"1",518,1,0
"14577790",63,"Positive","pleasant11.jpg","pic6.jpg",1,1630,"1",813,1,0
"14577790",64,"Negative","unpleasant5.jpg","pic46.jpg",1,1687,"0",252,1,0
"14577790",65,"Positive","pleasant10.jpg","pic11.jpg",1,1124,"0",255,1,0
"14577790",66,"Negative","unpleasant8.jpg","pic64.jpg",0,1173,"1",249,1,0
"14577790",67,"Positive","pleasant3.jpg","pic13.jpg",1,1777,"1",7,1,0
"14577790",68,"Positive","pleasant12.jpg","pic80.jpg",1,1417,"0",773,1,0
"14577790",69,"Positive","pleasant6.jpg","pic40.jpg",1,1195,"1",1379,1,0
"14577790",70,"Positive","pleasant9.jpg","pic1.jpg",1,3703,"1",682,1,0
"14577814",1,"Positive","pleasant8.jpg","pic79.jpg",1,6123,"0",1645,0,0
"14577814",2,"Positive","pleasant9.jpg","pic21.jpg",1,2504,"0",1419,0,0
"14577814",3,"Negative","unpleasant6.jpg","pic53.jpg",1,1050,"0",542,0,0
"14577814",4,"Positive","pleasant10.jpg","pic48.jpg",1,4816,"0",587,0,0
"14577814",5,"Positive","pleasant1.jpg","pic19.jpg",0,1962,"0",882,0,0
"14577814",6,"Positive","pleasant2.jpg","pic65.jpg",0,1557,"0",493,0,0
"14577814",7,"Positive","pleasant3.jpg","pic15.jpg",1,1637,"0",494,0,0
"14577814",8,"Negative","unpleasant9.jpg","pic23.jpg",1,2323,"0",319,0,0
"14577814",9,"Positive","pleasant11.jpg","pic32.jpg",1,1794,"0",268,0,0
"14577814",10,"Negative","unpleasant4.jpg","pic69.jpg",1,1306,"0",255,0,0
"14577814",11,"Positive","pleasant6.jpg","pic28.jpg",1,1166,"0",297,0,0
"14577814",12,"Positive","pleasant4.jpg","pic75.jpg",0,2705,"0",339,0,0
"14577814",13,"Negative","unpleasant7.jpg","pic41.jpg",0,1822,"0",395,0,0
"14577814",14,"Positive","pleasant7.jpg","pic14.jpg",1,2435,"1",2451,0,0
"14577814",15,"Positive","pleasant5.jpg","pic37.jpg",1,2323,"0",634,0,0
"14577814",16,"Negative","unpleasant2.jpg","pic17.jpg",0,1217,"0",635,0,0
"14577814",17,"Positive","pleasant12.jpg","pic20.jpg",0,2450,"1",1225,0,0
"14577814",18,"Negative","unpleasant3.jpg","pic72.jpg",0,2395,"0",553,0,0
"14577814",19,"Positive","pleasant12.jpg","pic39.jpg",0,2354,"0",349,0,0
"14577814",20,"Positive","pleasant10.jpg","pic74.jpg",1,986,"0",373,0,0
"14577814",21,"Positive","pleasant4.jpg","pic2.jpg",0,1116,"0",247,0,0
"14577814",22,"Positive","pleasant11.jpg","pic4.jpg",1,2745,"0",379,0,0
"14577814",23,"Positive","pleasant2.jpg","pic13.jpg",1,998,"0",331,0,0
"14577814",24,"Positive","pleasant1.jpg","pic62.jpg",0,988,"0",358,0,0
"14577814",25,"Negative","unpleasant1.jpg","pic54.jpg",0,999,"0",508,0,0
"14577814",26,"Positive","pleasant5.jpg","pic7.jpg",0,839,"0",413,0,0
"14577814",27,"Positive","pleasant9.jpg","pic38.jpg",1,1201,"0",357,0,0
"14577814",28,"Negative","unpleasant10.jpg","pic29.jpg",1,1104,"0",405,0,0
"14577814",29,"Negative","unpleasant11.jpg","pic56.jpg",0,2620,"0",246,0,0
"14577814",30,"Positive","pleasant7.jpg","pic49.jpg",0,1540,"0",431,0,0
"14577814",31,"Negative","unpleasant8.jpg","pic50.jpg",0,1659,"0",376,0,0
"14577814",32,"Negative","unpleasant12.jpg","pic58.jpg",0,1335,"0",326,0,0
"14577814",33,"Positive","pleasant8.jpg","pic57.jpg",0,770,"0",242,0,0
"14577814",34,"Positive","pleasant3.jpg","pic26.jpg",1,895,"0",308,0,0
"14577814",35,"Negative","unpleasant5.jpg","pic18.jpg",1,1281,"0",310,0,0
"14577814",36,"Positive","pleasant6.jpg","pic31.jpg",0,857,"0",397,0,0
"14577814",37,"Negative","unpleasant8.jpg","pic67.jpg",1,1035,"0",323,0,0
"14577814",38,"Negative","unpleasant11.jpg","pic6.jpg",0,822,"0",230,0,0
"14577814",39,"Positive","pleasant11.jpg","pic73.jpg",1,1091,"0",306,0,0
"14577814",40,"Negative","unpleasant1.jpg","pic55.jpg",0,797,"0",239,0,0
"14577814",41,"Negative","unpleasant9.jpg","pic3.jpg",0,1082,"0",303,0,0
"14577814",42,"Negative","unpleasant6.jpg","pic42.jpg",0,796,"0",350,0,0
"14577814",43,"Positive","pleasant5.jpg","pic45.jpg",0,1728,"0",335,0,0
"14577814",44,"Positive","pleasant9.jpg","pic61.jpg",1,765,"0",657,0,0
"14577814",45,"Negative","unpleasant10.jpg","pic51.jpg",0,768,"0",142,0,0
"14577814",46,"Positive","pleasant3.jpg","pic60.jpg",0,947,"0",51,0,0
"14577814",47,"Negative","unpleasant12.jpg","pic8.jpg",0,1143,"0",292,0,0
"14577814",48,"Negative","unpleasant5.jpg","pic70.jpg",0,782,"0",147,0,0
"14577814",49,"Negative","unpleasant7.jpg","pic68.jpg",0,1166,"0",251,0,0
"14577814",50,"Negative","unpleasant4.jpg","pic63.jpg",0,710,"0",158,0,0
"14577814",51,"Negative","unpleasant2.jpg","pic36.jpg",0,670,"0",205,0,0
"14577814",52,"Negative","unpleasant3.jpg","pic10.jpg",0,588,"0",123,0,0
"14577814",53,"Negative","unpleasant5.jpg","pic77.jpg",1,694,"0",1589,0,0
"14577814",54,"Negative","unpleasant6.jpg","pic5.jpg",1,901,"0",397,0,0
"14577814",55,"Positive","pleasant8.jpg","pic78.jpg",1,1263,"0",255,0,0
"14577814",56,"Negative","unpleasant10.jpg","pic64.jpg",1,876,"0",297,0,0
"14577814",57,"Negative","unpleasant3.jpg","pic16.jpg",0,723,"0",207,0,0
"14577814",58,"Negative","unpleasant4.jpg","pic22.jpg",1,889,"0",156,0,0
"14577814",59,"Negative","unpleasant12.jpg","pic34.jpg",1,863,"0",175,0,0
"14577814",60,"Negative","unpleasant1.jpg","pic11.jpg",1,856,"0",232,0,0
"14577817",1,"Positive","pleasant2.jpg","pic54.jpg",0,1653,"1",372,0,0
"14577817",2,"Negative","unpleasant11.jpg","pic53.jpg",0,1136,"1",480,0,0
"14577817",3,"Positive","pleasant7.jpg","pic8.jpg",1,1106,"1",319,0,0
"14577817",4,"Negative","unpleasant12.jpg","pic72.jpg",0,747,"1",191,0,0
"14577817",5,"Positive","pleasant6.jpg","pic13.jpg",1,726,"1",254,0,0
"14577817",6,"Negative","unpleasant6.jpg","pic33.jpg",0,1037,"1",277,0,0
"14577817",7,"Negative","unpleasant10.jpg","pic25.jpg",1,1222,"0",772,0,0
"14577817",8,"Positive","pleasant11.jpg","pic42.jpg",1,1195,"1",988,0,0
"14577817",9,"Positive","pleasant5.jpg","pic75.jpg",1,1086,"1",336,0,0
"14577817",10,"Negative","unpleasant9.jpg","pic73.jpg",0,945,"1",414,0,0
"14577817",11,"Negative","unpleasant3.jpg","pic49.jpg",0,782,"1",322,0,0
"14577817",12,"Negative","unpleasant2.jpg","pic12.jpg",1,1198,"1",431,0,0
"14577817",13,"Negative","unpleasant7.jpg","pic52.jpg",1,1040,"0",1106,0,0
"14577817",14,"Negative","unpleasant8.jpg","pic57.jpg",0,1866,"1",641,0,0
"14577817",15,"Negative","unpleasant1.jpg","pic36.jpg",0,1113,"1",329,0,0
"14577817",16,"Positive","pleasant1.jpg","pic51.jpg",1,952,"1",686,0,0
"14577817",17,"Positive","pleasant9.jpg","pic45.jpg",1,1117,"1",333,0,0
"14577817",18,"Positive","pleasant10.jpg","pic77.jpg",1,948,"1",287,0,0
"14577817",19,"Negative","unpleasant4.jpg","pic39.jpg",0,1091,"1",313,0,0
"14577817",20,"Positive","pleasant3.jpg","pic64.jpg",1,866,"1",300,0,0
"14577817",21,"Positive","pleasant8.jpg","pic2.jpg",1,901,"1",314,0,0
"14577817",22,"Positive","pleasant12.jpg","pic71.jpg",1,712,"1",113,0,0
"14577817",23,"Positive","pleasant4.jpg","pic26.jpg",1,823,"1",56,0,0
"14577817",24,"Negative","unpleasant5.jpg","pic31.jpg",0,2403,"1",335,0,0
"14577817",25,"Positive","pleasant7.jpg","pic60.jpg",1,781,"1",185,0,0
"14577817",26,"Positive","pleasant3.jpg","pic44.jpg",1,588,"1",33,0,0
"14577817",27,"Positive","pleasant1.jpg","pic74.jpg",1,475,"1",370,0,0
"14577817",28,"Positive","pleasant9.jpg","pic37.jpg",1,729,"1",213,0,0
"14577817",29,"Positive","pleasant11.jpg","pic29.jpg",1,558,"1",178,0,0
"14577817",30,"Negative","unpleasant10.jpg","pic62.jpg",0,999,"1",148,0,0
"14577817",31,"Negative","unpleasant3.jpg","pic50.jpg",0,928,"1",116,0,0
"14577817",32,"Negative","unpleasant12.jpg","pic38.jpg",0,607,"1",26,0,0
"14577817",33,"Positive","pleasant4.jpg","pic21.jpg",1,1167,"1",134,0,0
"14577817",34,"Negative","unpleasant11.jpg","pic58.jpg",0,559,"1",115,0,0
"14577817",35,"Positive","pleasant10.jpg","pic47.jpg",1,614,"1",181,0,0
"14577817",36,"Negative","unpleasant4.jpg","pic66.jpg",0,731,"1",258,0,0
"14577817",37,"Negative","unpleasant5.jpg","pic46.jpg",0,694,"1",135,0,0
"14577817",38,"Positive","pleasant5.jpg","pic78.jpg",1,441,"1",639,0,0
"14577817",39,"Negative","unpleasant8.jpg","pic43.jpg",0,452,"1",229,0,0
"14577817",40,"Positive","pleasant2.jpg","pic23.jpg",0,595,"1",131,0,0
"14577831",1,"Negative","unpleasant1.jpg","pic49.jpg",0,1816,"0",1250,1,1
"14577831",2,"Negative","unpleasant2.jpg","pic43.jpg",0,1177,"0",557,1,1
"14577831",3,"Positive","pleasant10.jpg","pic59.jpg",0,1249,"0",483,1,1
"14577831",4,"Negative","unpleasant7.jpg","pic4.jpg",0,881,"0",154,1,1
"14577831",5,"Positive","pleasant12.jpg","pic46.jpg",0,702,"0",309,1,1
"14577831",6,"Positive","pleasant4.jpg","pic53.jpg",0,571,"0",344,1,1
"14577831",7,"Positive","pleasant1.jpg","pic69.jpg",0,509,"0",4,1,1
"14577831",8,"Negative","unpleasant12.jpg","pic6.jpg",0,470,"0",240,1,1
"14577831",9,"Negative","unpleasant5.jpg","pic27.jpg",0,472,"0",281,1,1
"14577831",10,"Positive","pleasant7.jpg","pic58.jpg",0,608,"0",146,1,1
"14577831",11,"Positive","pleasant11.jpg","pic39.jpg",0,456,"0",361,1,1
"14577831",12,"Positive","pleasant3.jpg","pic28.jpg",0,797,"0",457,1,1
"14577831",13,"Positive","pleasant2.jpg","pic35.jpg",0,505,"0",298,1,1
"14577831",14,"Positive","pleasant8.jpg","pic1.jpg",0,463,"0",409,1,1
"14577831",15,"Positive","pleasant9.jpg","pic24.jpg",0,499,"0",235,1,1
"14577831",16,"Negative","unpleasant10.jpg","pic34.jpg",0,682,"0",315,1,1
"14577831",17,"Positive","pleasant5.jpg","pic73.jpg",0,752,"0",575,1,1
"14577831",18,"Positive","pleasant6.jpg","pic71.jpg",0,489,"0",290,1,1
"14577831",19,"Negative","unpleasant6.jpg","pic65.jpg",0,488,"0",320,1,1
"14577831",20,"Negative","unpleasant11.jpg","pic41.jpg",0,486,"0",272,1,1
"14577831",21,"Negative","unpleasant4.jpg","pic20.jpg",0,757,"0",307,1,1
"14577831",22,"Positive","pleasant2.jpg","pic21.jpg",0,584,"0",419,1,1
"14577831",23,"Positive","pleasant9.jpg","pic60.jpg",0,942,"0",1292,1,1
"14577831",24,"Positive","pleasant7.jpg","pic29.jpg",0,658,"0",380,1,1
"14577831",25,"Negative","unpleasant9.jpg","pic10.jpg",0,502,"0",463,1,1
"14577831",26,"Negative","unpleasant3.jpg","pic18.jpg",0,534,"0",356,1,1
"14577831",27,"Negative","unpleasant8.jpg","pic51.jpg",0,433,"0",316,1,1
"14577831",28,"Positive","pleasant12.jpg","pic23.jpg",0,569,"0",285,1,1
"14577831",29,"Negative","unpleasant11.jpg","pic17.jpg",0,452,"0",254,1,1
"14577831",30,"Negative","unpleasant9.jpg","pic52.jpg",0,495,"0",238,1,1
"14577831",31,"Positive","pleasant11.jpg","pic79.jpg",0,527,"0",389,1,1
"14577831",32,"Positive","pleasant3.jpg","pic56.jpg",0,408,"0",475,1,1
"14577831",33,"Negative","unpleasant6.jpg","pic25.jpg",0,435,"0",318,1,1
"14577831",34,"Positive","pleasant10.jpg","pic75.jpg",0,387,"0",359,1,1
"14577831",35,"Positive","pleasant6.jpg","pic26.jpg",0,356,"0",168,1,1
"14577831",36,"Positive","pleasant4.jpg","pic76.jpg",0,363,"0",226,1,1
"14577831",37,"Negative","unpleasant2.jpg","pic8.jpg",0,450,"0",220,1,1
"14577831",38,"Negative","unpleasant12.jpg","pic42.jpg",0,527,"0",220,1,1
"14577831",39,"Negative","unpleasant5.jpg","pic55.jpg",0,429,"0",168,1,1
"14577831",40,"Positive","pleasant8.jpg","pic11.jpg",0,532,"0",116,1,1
"14577831",41,"Positive","pleasant5.jpg","pic14.jpg",0,471,"0",265,1,1
"14577831",42,"Positive","pleasant1.jpg","pic31.jpg",0,337,"0",103,1,1
"14577831",43,"Negative","unpleasant8.jpg","pic5.jpg",0,437,"0",320,1,1
"14577831",44,"Negative","unpleasant1.jpg","pic54.jpg",0,462,"0",366,1,1
"14577831",45,"Positive","pleasant12.jpg","pic62.jpg",0,394,"0",302,1,1
"14577831",46,"Positive","pleasant10.jpg","pic36.jpg",0,365,"0",274,1,1
"14577831",47,"Negative","unpleasant4.jpg","pic80.jpg",0,361,"0",119,1,1
"14577831",48,"Negative","unpleasant10.jpg","pic68.jpg",0,355,"0",185,1,1
"14577831",49,"Positive","pleasant2.jpg","pic33.jpg",0,452,"0",22,1,1
"14577831",50,"Positive","pleasant7.jpg","pic44.jpg",0,215,"0",450,1,1
"14577831",51,"Positive","pleasant3.jpg","pic78.jpg",0,434,"0",317,1,1
"14577831",52,"Negative","unpleasant7.jpg","pic37.jpg",0,498,"0",474,1,1
"14577831",53,"Negative","unpleasant3.jpg","pic61.jpg",0,387,"0",334,1,1
"14577831",54,"Positive","pleasant4.jpg","pic30.jpg",0,395,"0",262,1,1
"14577831",55,"Negative","unpleasant7.jpg","pic38.jpg",0,415,"0",307,1,1
"14577831",56,"Positive","pleasant5.jpg","pic7.jpg",0,496,"0",257,1,1
"14577831",57,"Negative","unpleasant11.jpg","pic64.jpg",0,408,"0",339,1,1
"14577831",58,"Negative","unpleasant8.jpg","pic77.jpg",0,488,"0",312,1,1
"14577831",59,"Positive","pleasant9.jpg","pic47.jpg",0,430,"0",264,1,1
"14577831",60,"Positive","pleasant11.jpg","pic22.jpg",0,472,"0",473,1,1
"14577831",61,"Negative","unpleasant1.jpg","pic3.jpg",0,416,"0",268,1,1
"14577831",62,"Negative","unpleasant9.jpg","pic16.jpg",0,187,"0",416,1,1
"14577831",63,"Negative","unpleasant3.jpg","pic63.jpg",0,521,"0",312,1,1
"14577831",64,"Positive","pleasant1.jpg","pic13.jpg",0,1198,"0",1121,1,1
"14577831",65,"Negative","unpleasant6.jpg","pic48.jpg",0,358,"0",235,1,1
"14577831",66,"Negative","unpleasant12.jpg","pic50.jpg",0,212,"0",359,1,1
"14577831",67,"Negative","unpleasant4.jpg","pic32.jpg",0,443,"0",285,1,1
"14577831",68,"Negative","unpleasant10.jpg","pic72.jpg",0,453,"0",295,1,1
"14577831",69,"Positive","pleasant6.jpg","pic2.jpg",0,405,"0",225,1,1
"14577831",70,"Negative","unpleasant5.jpg","pic15.jpg",0,401,"0",166,1,1
"14577836",1,"Positive","pleasant8.jpg","pic48.jpg",1,3119,"1",1992,1,0
"14577836",2,"Negative","unpleasant9.jpg","pic56.jpg",0,1628,"1",1336,1,0
"14577836",3,"Positive","pleasant6.jpg","pic54.jpg",0,4480,"1",1861,1,0
"14577836",4,"Positive","pleasant12.jpg","pic13.jpg",0,4806,"1",528,1,0
"14577836",5,"Positive","pleasant4.jpg","pic66.jpg",0,2041,"1",950,1,0
"14577836",6,"Negative","unpleasant6.jpg","pic53.jpg",0,1679,"1",623,1,0
"14577836",7,"Positive","pleasant7.jpg","pic71.jpg",1,1261,"1",1236,1,0
"14577836",8,"Negative","unpleasant3.jpg","pic51.jpg",0,2057,"0",1472,1,0
"14577836",9,"Positive","pleasant9.jpg","pic42.jpg",1,2853,"1",744,1,0
"14577836",10,"Negative","unpleasant1.jpg","pic9.jpg",0,2066,"1",776,1,0
"14577836",11,"Positive","pleasant2.jpg","pic80.jpg",1,1992,"1",1289,1,0
"14577836",12,"Positive","pleasant3.jpg","pic70.jpg",1,953,"1",392,1,0
"14577836",13,"Positive","pleasant11.jpg","pic45.jpg",1,968,"1",519,1,0
"14577836",14,"Negative","unpleasant2.jpg","pic30.jpg",0,1467,"1",584,1,0
"14577836",15,"Negative","unpleasant7.jpg","pic67.jpg",0,1423,"1",302,1,0
"14577836",16,"Positive","pleasant5.jpg","pic35.jpg",1,1687,"1",1003,1,0
"14577836",17,"Negative","unpleasant11.jpg","pic10.jpg",1,1830,"1",429,1,0
"14577836",18,"Negative","unpleasant5.jpg","pic55.jpg",0,2197,"1",569,1,0
"14577836",19,"Positive","pleasant1.jpg","pic27.jpg",1,1245,"1",426,1,0
"14577836",20,"Negative","unpleasant12.jpg","pic7.jpg",0,1259,"1",439,1,0
"14577836",21,"Negative","unpleasant10.jpg","pic28.jpg",0,1771,"1",420,1,0
"14577836",22,"Negative","unpleasant4.jpg","pic75.jpg",0,1332,"1",342,1,0
"14577836",23,"Positive","pleasant10.jpg","pic36.jpg",1,1289,"1",419,1,0
"14577836",24,"Negative","unpleasant8.jpg","pic26.jpg",0,1231,"1",303,1,0
"14577836",25,"Negative","unpleasant1.jpg","pic37.jpg",0,1416,"1",493,1,0
"14577836",26,"Positive","pleasant9.jpg","pic57.jpg",1,1307,"1",400,1,0
"14577836",27,"Negative","unpleasant12.jpg","pic46.jpg",0,1654,"1",398,1,0
"14577836",28,"Negative","unpleasant10.jpg","pic1.jpg",0,1439,"1",296,1,0
"14577836",29,"Negative","unpleasant7.jpg","pic78.jpg",0,982,"1",305,1,0
"14577836",30,"Negative","unpleasant2.jpg","pic16.jpg",0,1088,"1",698,1,0
"14577836",31,"Positive","pleasant12.jpg","pic17.jpg",0,2077,"1",496,1,0
"14577836",32,"Negative","unpleasant4.jpg","pic32.jpg",0,1201,"1",442,1,0
"14577836",33,"Negative","unpleasant5.jpg","pic29.jpg",0,1099,"1",645,1,0
"14577836",34,"Negative","unpleasant3.jpg","pic24.jpg",0,3644,"1",642,1,0
"14577836",35,"Negative","unpleasant8.jpg","pic68.jpg",0,865,"1",338,1,0
"14577836",36,"Negative","unpleasant11.jpg","pic60.jpg",0,1283,"1",351,1,0
"14577836",37,"Positive","pleasant1.jpg","pic31.jpg",1,1153,"1",343,1,0
"14577836",38,"Negative","unpleasant6.jpg","pic52.jpg",0,1018,"1",1126,1,0
"14577836",39,"Negative","unpleasant9.jpg","pic58.jpg",0,1044,"1",381,1,0
"14577836",40,"Positive","pleasant8.jpg","pic12.jpg",0,2133,"1",269,1,0
"14577836",41,"Positive","pleasant7.jpg","pic69.jpg",1,761,"1",622,1,0
"14577836",42,"Positive","pleasant2.jpg","pic19.jpg",1,916,"1",509,1,0
"14577836",43,"Positive","pleasant5.jpg","pic11.jpg",1,1152,"1",484,1,0
"14577836",44,"Positive","pleasant3.jpg","pic23.jpg",1,803,"1",710,1,0
"14577836",45,"Positive","pleasant10.jpg","pic21.jpg",1,553,"1",785,1,0
"14577836",46,"Negative","unpleasant12.jpg","pic5.jpg",0,1133,"1",242,1,0
"14577836",47,"Positive","pleasant4.jpg","pic43.jpg",1,943,"1",811,1,0
"14577836",48,"Negative","unpleasant11.jpg","pic33.jpg",0,1087,"1",277,1,0
"14577836",49,"Positive","pleasant6.jpg","pic8.jpg",0,972,"1",275,1,0
"14577836",50,"Negative","unpleasant8.jpg","pic4.jpg",1,787,"1",1914,1,0
"14577836",51,"Negative","unpleasant7.jpg","pic44.jpg",0,1254,"1",287,1,0
"14577836",52,"Positive","pleasant11.jpg","pic41.jpg",1,2011,"1",16,1,0
"14577836",53,"Positive","pleasant6.jpg","pic20.jpg",1,2044,"1",36,1,0
"14577836",54,"Negative","unpleasant5.jpg","pic64.jpg",0,809,"1",410,1,0
"14577836",55,"Positive","pleasant9.jpg","pic49.jpg",1,3331,"1",2297,1,0
"14577836",56,"Negative","unpleasant6.jpg","pic63.jpg",0,1113,"1",2789,1,0
"14577836",57,"Positive","pleasant8.jpg","pic50.jpg",0,648,"1",328,1,0
"14577836",58,"Positive","pleasant1.jpg","pic65.jpg",1,3328,"1",137,1,0
"14577836",59,"Positive","pleasant2.jpg","pic74.jpg",1,774,"1",317,1,0
"14577836",60,"Negative","unpleasant4.jpg","pic22.jpg",0,1423,"1",188,1,0
"14577836",61,"Positive","pleasant10.jpg","pic79.jpg",1,1655,"1",1379,1,0
"14577836",62,"Positive","pleasant11.jpg","pic38.jpg",1,1867,"1",487,1,0
"14577836",63,"Negative","unpleasant9.jpg","pic47.jpg",0,1148,"1",461,1,0
"14577836",64,"Negative","unpleasant1.jpg","pic76.jpg",0,2026,"1",512,1,0
"14577836",65,"Positive","pleasant7.jpg","pic18.jpg",1,1307,"1",565,1,0
"14577836",66,"Negative","unpleasant2.jpg","pic25.jpg",0,939,"1",351,1,0
"14577836",67,"Positive","pleasant12.jpg","pic34.jpg",0,2190,"1",376,1,0
"14577836",68,"Negative","unpleasant3.jpg","pic59.jpg",0,1741,"1",299,1,0
"14577836",69,"Positive","pleasant4.jpg","pic15.jpg",0,6810,"1",456,1,0
"14577836",70,"Positive","pleasant3.jpg","pic61.jpg",1,1055,"1",943,1,0
"14577853",1,"Negative","unpleasant1.jpg","pic34.jpg",1,5037,"0",946,1,0
"14577853",2,"Positive","pleasant7.jpg","pic24.jpg",0,2705,"0",1297,1,0
"14577853",3,"Negative","unpleasant2.jpg","pic42.jpg",1,2381,"0",2435,1,0
"14577853",4,"Positive","pleasant10.jpg","pic77.jpg",0,1993,"0",1232,1,0
"14577853",5,"Negative","unpleasant3.jpg","pic70.jpg",1,1375,"0",809,1,0
"14577853",6,"Positive","pleasant1.jpg","pic78.jpg",0,2523,"0",329,1,0
"14577853",7,"Positive","pleasant3.jpg","pic30.jpg",0,1454,"0",1075,1,0
"14577853",8,"Negative","unpleasant12.jpg","pic71.jpg",1,2273,"1",589,1,0
"14577853",9,"Positive","pleasant9.jpg","pic32.jpg",0,1945,"0",3778,1,0
"14577853",10,"Positive","pleasant8.jpg","pic15.jpg",0,1458,"0",1372,1,0
"14577853",11,"Positive","pleasant4.jpg","pic50.jpg",1,1335,"0",755,1,0
"14577853",12,"Negative","unpleasant6.jpg","pic27.jpg",1,4740,"0",533,1,0
"14577853",13,"Positive","pleasant12.jpg","pic25.jpg",0,1196,"0",477,1,0
"14577853",14,"Negative","unpleasant8.jpg","pic56.jpg",1,3347,"0",1002,1,0
"14577853",15,"Positive","pleasant6.jpg","pic62.jpg",1,1022,"0",279,1,0
"14577853",16,"Positive","pleasant5.jpg","pic55.jpg",0,1025,"0",908,1,0
"14577853",17,"Negative","unpleasant10.jpg","pic65.jpg",1,976,"0",785,1,0
"14577853",18,"Positive","pleasant11.jpg","pic9.jpg",0,1938,"0",380,1,0
"14577853",19,"Negative","unpleasant7.jpg","pic67.jpg",1,2526,"0",2077,1,0
"14577853",20,"Negative","unpleasant11.jpg","pic20.jpg",0,3120,"0",261,1,0
"14577853",21,"Negative","unpleasant9.jpg","pic13.jpg",0,1838,"0",405,1,0
"14577853",22,"Positive","pleasant2.jpg","pic37.jpg",0,1259,"0",280,1,0
"14577853",23,"Positive","pleasant7.jpg","pic48.jpg",1,925,"0",800,1,0
"14577853",24,"Positive","pleasant4.jpg","pic40.jpg",1,2177,"0",1533,1,0
"14577853",25,"Negative","unpleasant4.jpg","pic57.jpg",0,2437,"0",672,1,0
"14577853",26,"Positive","pleasant1.jpg","pic7.jpg",1,1248,"0",579,1,0
"14577853",27,"Negative","unpleasant5.jpg","pic69.jpg",0,884,"0",658,1,0
"14577853",28,"Positive","pleasant11.jpg","pic43.jpg",0,4062,"0",513,1,0
"14577853",29,"Positive","pleasant5.jpg","pic3.jpg",1,1573,"0",550,1,0
"14577853",30,"Negative","unpleasant5.jpg","pic16.jpg",0,829,"0",347,1,0
"14577853",31,"Negative","unpleasant11.jpg","pic79.jpg",0,3427,"0",542,1,0
"14577853",32,"Negative","unpleasant10.jpg","pic68.jpg",0,1140,"0",270,1,0
"14577853",33,"Positive","pleasant10.jpg","pic14.jpg",0,673,"0",271,1,0
"14577853",34,"Negative","unpleasant4.jpg","pic19.jpg",0,1418,"0",264,1,0
"14577853",35,"Positive","pleasant12.jpg","pic1.jpg",0,2636,"0",245,1,0
"14577853",36,"Positive","pleasant2.jpg","pic18.jpg",0,1589,"0",240,1,0
"14577853",37,"Negative","unpleasant8.jpg","pic28.jpg",1,745,"0",572,1,0
"14577853",38,"Negative","unpleasant6.jpg","pic58.jpg",1,4084,"0",268,1,0
"14577853",39,"Positive","pleasant9.jpg","pic22.jpg",0,807,"0",247,1,0
"14577853",40,"Negative","unpleasant12.jpg","pic2.jpg",0,769,"0",484,1,0
"14577853",41,"Negative","unpleasant7.jpg","pic76.jpg",0,923,"0",231,1,0
"14577853",42,"Negative","unpleasant9.jpg","pic73.jpg",0,754,"0",359,1,0
"14577853",43,"Negative","unpleasant2.jpg","pic54.jpg",1,2287,"0",239,1,0
"14577853",44,"Positive","pleasant3.jpg","pic6.jpg",1,895,"0",501,1,0
"14577853",45,"Positive","pleasant6.jpg","pic44.jpg",1,734,"0",249,1,0
"14577853",46,"Negative","unpleasant3.jpg","pic49.jpg",1,697,"0",235,1,0
"14577853",47,"Positive","pleasant8.jpg","pic29.jpg",1,969,"0",241,1,0
"14577853",48,"Positive","pleasant1.jpg","pic46.jpg",0,1035,"0",379,1,0
"14577853",49,"Positive","pleasant8.jpg","pic41.jpg",1,873,"0",342,1,0
"14577853",50,"Negative","unpleasant1.jpg","pic61.jpg",1,692,"0",270,1,0
"14577853",51,"Negative","unpleasant5.jpg","pic63.jpg",0,690,"0",383,1,0
"14577853",52,"Negative","unpleasant1.jpg","pic66.jpg",1,1300,"0",3180,1,0
"14577853",53,"Positive","pleasant12.jpg","pic52.jpg",0,1878,"0",295,1,0
"14577853",54,"Positive","pleasant6.jpg","pic8.jpg",1,704,"0",378,1,0
"14577853",55,"Positive","pleasant11.jpg","pic36.jpg",0,778,"0",261,1,0
"14577853",56,"Positive","pleasant7.jpg","pic75.jpg",0,766,"0",147,1,0
"14577853",57,"Positive","pleasant2.jpg","pic21.jpg",1,1507,"0",261,1,0
"14577853",58,"Negative","unpleasant10.jpg","pic72.jpg",1,731,"0",206,1,0
"14577853",59,"Positive","pleasant4.jpg","pic35.jpg",0,1209,"0",257,1,0
"14577853",60,"Negative","unpleasant9.jpg","pic51.jpg",0,665,"0",455,1,0
"14577853",61,"Negative","unpleasant11.jpg","pic31.jpg",1,599,"0",371,1,0
"14577853",62,"Positive","pleasant10.jpg","pic38.jpg",0,1045,"0",207,1,0
"14577853",63,"Negative","unpleasant3.jpg","pic80.jpg",0,767,"0",228,1,0
"14577853",64,"Negative","unpleasant7.jpg","pic10.jpg",0,930,"0",193,1,0
"14577853",65,"Positive","pleasant5.jpg","pic23.jpg",1,619,"0",378,1,0
"14577853",66,"Negative","unpleasant2.jpg","pic5.jpg",1,785,"0",214,1,0
"14577853",67,"Negative","unpleasant6.jpg","pic53.jpg",0,714,"0",470,1,0
"14577853",68,"Negative","unpleasant12.jpg","pic60.jpg",1,812,"0",253,1,0
"14577853",69,"Positive","pleasant3.jpg","pic39.jpg",1,1116,"0",242,1,0
"14577853",70,"Negative","unpleasant8.jpg","pic11.jpg",0,544,"0",256,1,0
"14577871",1,"Positive","pleasant7.jpg","pic67.jpg",1,3267,"0",970,0,0
"14577871",2,"Positive","pleasant6.jpg","pic31.jpg",0,2281,"1",334,0,0
"14577871",3,"Positive","pleasant9.jpg","pic39.jpg",0,2575,"0",599,0,0
"14577871",4,"Negative","unpleasant7.jpg","pic18.jpg",1,2332,"0",362,0,0
"14577871",5,"Negative","unpleasant8.jpg","pic53.jpg",0,1897,"1",65,0,0
"14577871",6,"Positive","pleasant8.jpg","pic74.jpg",1,1827,"0",456,0,0
"14577871",7,"Negative","unpleasant12.jpg","pic77.jpg",0,1402,"0",35,0,0
"14577871",8,"Negative","unpleasant2.jpg","pic32.jpg",1,720,"1",210,0,0
"14577871",9,"Positive","pleasant2.jpg","pic80.jpg",0,1146,"0",37,0,0
"14577871",10,"Positive","pleasant12.jpg","pic59.jpg",1,2534,"1",1074,0,0
"14577882",1,"Negative","unpleasant2.jpg","pic57.jpg",0,17778,"0",838,1,0
"14577882",2,"Positive","pleasant8.jpg","pic77.jpg",0,1840,"0",334,1,0
"14577882",3,"Negative","unpleasant1.jpg","pic79.jpg",0,1088,"0",407,1,0
"14577882",4,"Negative","unpleasant5.jpg","pic13.jpg",0,760,"0",454,1,0
"14577882",5,"Positive","pleasant6.jpg","pic8.jpg",0,2132,"0",418,1,0
"14577882",6,"Positive","pleasant11.jpg","pic55.jpg",0,1018,"0",354,1,0
"14577882",7,"Negative","unpleasant4.jpg","pic42.jpg",0,786,"0",256,1,0
"14577882",8,"Positive","pleasant2.jpg","pic69.jpg",0,522,"0",812,1,0
"14577882",9,"Positive","pleasant9.jpg","pic54.jpg",0,884,"0",4550,1,0
"14577882",10,"Positive","pleasant3.jpg","pic62.jpg",0,750,"0",306,1,0
"14577882",11,"Negative","unpleasant9.jpg","pic71.jpg",0,10883,"0",406,1,0
"14577882",12,"Positive","pleasant7.jpg","pic4.jpg",0,760,"0",691,1,0
"14577882",13,"Positive","pleasant12.jpg","pic5.jpg",0,2568,"0",957,1,0
"14577882",14,"Positive","pleasant1.jpg","pic78.jpg",0,778,"0",306,1,0
"14577882",15,"Positive","pleasant4.jpg","pic59.jpg",0,1294,"0",10,1,0
"14577882",16,"Negative","unpleasant11.jpg","pic17.jpg",0,2078,"0",249,1,0
"14577882",17,"Negative","unpleasant3.jpg","pic31.jpg",0,13990,"0",413,1,0
"14577882",18,"Positive","pleasant10.jpg","pic37.jpg",0,6973,"0",579,1,0
"14577882",19,"Negative","unpleasant7.jpg","pic44.jpg",0,1918,"0",375,1,0
"14577882",20,"Negative","unpleasant10.jpg","pic49.jpg",0,2558,"0",139,1,0
"14577882",21,"Positive","pleasant5.jpg","pic74.jpg",0,1523,"0",6148,1,0
"14577882",22,"Negative","unpleasant12.jpg","pic27.jpg",0,651,"0",360,1,0
"14577882",23,"Positive","pleasant5.jpg","pic20.jpg",0,934,"0",1125,1,0
"14577882",24,"Negative","unpleasant8.jpg","pic1.jpg",0,4872,"0",232,1,0
"14577882",25,"Negative","unpleasant6.jpg","pic24.jpg",0,535,"0",247,1,0
"14577882",26,"Positive","pleasant11.jpg","pic73.jpg",0,387,"0",280,1,0
"14577882",27,"Positive","pleasant8.jpg","pic6.jpg",0,390,"0",264,1,0
"14577882",28,"Positive","pleasant6.jpg","pic40.jpg",0,382,"0",281,1,0
"14577882",29,"Negative","unpleasant8.jpg","pic67.jpg",0,359,"0",205,1,0
"14577882",30,"Negative","unpleasant3.jpg","pic68.jpg",0,407,"0",564,1,0
"14577882",31,"Negative","unpleasant1.jpg","pic12.jpg",0,477,"0",254,1,0
"14577882",32,"Negative","unpleasant7.jpg","pic45.jpg",0,215,"0",156,1,0
"14577882",33,"Positive","pleasant3.jpg","pic9.jpg",0,464,"0",151,1,0
"14577882",34,"Positive","pleasant1.jpg","pic63.jpg",0,355,"0",20,1,0
"14577882",35,"Negative","unpleasant11.jpg","pic75.jpg",0,1054,"0",146,1,0
"14577882",36,"Positive","pleasant9.jpg","pic43.jpg",1,1218,"0",253,1,0
"14577882",37,"Positive","pleasant10.jpg","pic32.jpg",1,1238,"0",124,1,0
"14577882",38,"Negative","unpleasant4.jpg","pic14.jpg",1,701,"0",19,1,0
"14577882",39,"Negative","unpleasant6.jpg","pic70.jpg",1,589,"0",496,1,0
"14577882",40,"Negative","unpleasant2.jpg","pic22.jpg",1,2453,"0",1376,1,0
"14577882",41,"Negative","unpleasant5.jpg","pic21.jpg",1,491,"0",149,1,0
"14577882",42,"Negative","unpleasant9.jpg","pic58.jpg",1,567,"0",158,1,0
"14577882",43,"Positive","pleasant4.jpg","pic25.jpg",1,483,"0",1017,1,0
"14577882",44,"Positive","pleasant2.jpg","pic35.jpg",1,503,"0",230,1,0
"14577882",45,"Negative","unpleasant10.jpg","pic7.jpg",1,753,"0",209,1,0
"14577882",46,"Negative","unpleasant12.jpg","pic10.jpg",1,655,"0",203,1,0
"14577882",47,"Positive","pleasant12.jpg","pic18.jpg",1,658,"0",223,1,0
"14577882",48,"Positive","pleasant7.jpg","pic50.jpg",1,511,"0",252,1,0
"14577882",49,"Negative","unpleasant4.jpg","pic46.jpg",1,640,"0",248,1,0
"14577882",50,"Negative","unpleasant9.jpg","pic66.jpg",1,604,"0",12,1,0
"14577882",51,"Positive","pleasant1.jpg","pic3.jpg",1,6989,"0",436,1,0
"14577882",52,"Negative","unpleasant8.jpg","pic34.jpg",1,1260,"0",493,1,0
"14577882",53,"Negative","unpleasant11.jpg","pic29.jpg",1,888,"0",145,1,0
"14577882",54,"Positive","pleasant4.jpg","pic23.jpg",1,714,"0",243,1,0
"14577882",55,"Positive","pleasant3.jpg","pic11.jpg",1,1039,"0",382,1,0
"14577882",56,"Positive","pleasant5.jpg","pic52.jpg",1,519,"0",221,1,0
"14577882",57,"Negative","unpleasant10.jpg","pic26.jpg",1,577,"0",247,1,0
"14577882",58,"Negative","unpleasant6.jpg","pic19.jpg",1,553,"0",538,1,0
"14577882",59,"Positive","pleasant2.jpg","pic33.jpg",1,1400,"0",348,1,0
"14577882",60,"Positive","pleasant11.jpg","pic64.jpg",1,1240,"0",279,1,0
"14577882",61,"Positive","pleasant8.jpg","pic65.jpg",1,510,"0",43,1,0
"14577882",62,"Positive","pleasant6.jpg","pic76.jpg",1,589,"0",869,1,0
"14577882",63,"Negative","unpleasant7.jpg","pic15.jpg",1,487,"0",576,1,0
"14577882",64,"Positive","pleasant12.jpg","pic28.jpg",1,1510,"0",131,1,0
"14577882",65,"Negative","unpleasant2.jpg","pic47.jpg",1,704,"0",289,1,0
"14577882",66,"Positive","pleasant10.jpg","pic36.jpg",1,468,"0",326,1,0
"14577882",67,"Negative","unpleasant5.jpg","pic53.jpg",1,838,"0",223,1,0
"14577882",68,"Positive","pleasant7.jpg","pic30.jpg",1,306,"0",439,1,0
"14577882",69,"Negative","unpleasant12.jpg","pic48.jpg",1,551,"0",283,1,0
"14577882",70,"Negative","unpleasant1.jpg","pic41.jpg",1,447,"0",231,1,0
"14577888",1,"Negative","unpleasant10.jpg","pic39.jpg",0,1321,"1",626,0,0
"14577888",2,"Positive","pleasant4.jpg","pic23.jpg",1,1018,"1",517,0,0
"14577888",3,"Positive","pleasant9.jpg","pic32.jpg",1,4698,"1",2530,0,0
"14577888",4,"Positive","pleasant11.jpg","pic38.jpg",1,893,"1",332,0,0
"14577888",5,"Positive","pleasant1.jpg","pic59.jpg",1,525,"1",232,0,0
"14577888",6,"Positive","pleasant10.jpg","pic15.jpg",1,602,"1",216,0,0
"14577888",7,"Positive","pleasant8.jpg","pic9.jpg",1,583,"1",44,0,0
"14577888",8,"Negative","unpleasant12.jpg","pic8.jpg",0,576,"1",344,0,0
"14577888",9,"Positive","pleasant7.jpg","pic67.jpg",1,523,"1",210,0,0
"14577888",10,"Negative","unpleasant6.jpg","pic58.jpg",0,1833,"1",264,0,0
"14577888",11,"Positive","pleasant3.jpg","pic5.jpg",1,925,"1",423,0,0
"14577888",12,"Negative","unpleasant2.jpg","pic68.jpg",0,817,"1",329,0,0
"14577888",13,"Negative","unpleasant8.jpg","pic80.jpg",0,1101,"1",223,0,0
"14577888",14,"Positive","pleasant6.jpg","pic77.jpg",1,983,"1",249,0,0
"14577888",15,"Negative","unpleasant7.jpg","pic62.jpg",0,585,"1",247,0,0
"14577888",16,"Negative","unpleasant3.jpg","pic56.jpg",0,1198,"1",1461,0,0
"14577888",17,"Negative","unpleasant1.jpg","pic21.jpg",0,1022,"1",18,0,0
"14577888",18,"Positive","pleasant5.jpg","pic18.jpg",1,440,"1",253,0,0
"14577888",19,"Positive","pleasant2.jpg","pic19.jpg",1,571,"1",248,0,0
"14577888",20,"Negative","unpleasant9.jpg","pic40.jpg",0,854,"1",241,0,0
"14577888",21,"Negative","unpleasant5.jpg","pic6.jpg",0,790,"1",252,0,0
"14577888",22,"Negative","unpleasant4.jpg","pic26.jpg",0,529,"1",178,0,0
"14577888",23,"Positive","pleasant12.jpg","pic76.jpg",1,512,"1",258,0,0
"14577888",24,"Negative","unpleasant11.jpg","pic34.jpg",1,585,"1",75,0,0
"14577888",25,"Positive","pleasant8.jpg","pic31.jpg",1,645,"1",222,0,0
"14577888",26,"Negative","unpleasant10.jpg","pic79.jpg",1,551,"1",230,0,0
"14577888",27,"Negative","unpleasant3.jpg","pic36.jpg",1,824,"0",1972,0,0
"14577888",28,"Positive","pleasant2.jpg","pic22.jpg",1,854,"1",154,0,0
"14577888",29,"Negative","unpleasant11.jpg","pic20.jpg",1,838,"1",390,0,0
"14577888",30,"Positive","pleasant5.jpg","pic28.jpg",1,361,"1",355,0,0
"14577889",1,"Positive","pleasant5.jpg","pic35.jpg",0,3660,"0",377,1,0
"14577889",2,"Positive","pleasant11.jpg","pic14.jpg",0,2870,"0",475,1,0
"14577889",3,"Negative","unpleasant10.jpg","pic46.jpg",0,1381,"0",378,1,0
"14577889",4,"Negative","unpleasant7.jpg","pic70.jpg",0,927,"0",382,1,0
"14577889",5,"Positive","pleasant7.jpg","pic5.jpg",0,708,"0",1360,1,0
"14577889",6,"Negative","unpleasant9.jpg","pic7.jpg",0,1027,"0",354,1,0
"14577889",7,"Positive","pleasant1.jpg","pic51.jpg",0,607,"0",549,1,0
"14577889",8,"Positive","pleasant12.jpg","pic39.jpg",0,884,"0",333,1,0
"14577889",9,"Negative","unpleasant12.jpg","pic37.jpg",0,772,"0",129,1,0
"14577889",10,"Positive","pleasant10.jpg","pic11.jpg",0,640,"0",992,1,0
"14577889",11,"Positive","pleasant4.jpg","pic24.jpg",0,817,"0",383,1,0
"14577889",12,"Negative","unpleasant2.jpg","pic59.jpg",0,656,"0",322,1,0
"14577889",13,"Positive","pleasant6.jpg","pic72.jpg",0,723,"0",314,1,0
"14577889",14,"Negative","unpleasant5.jpg","pic3.jpg",0,330,"0",130,1,0
"14577889",15,"Positive","pleasant3.jpg","pic56.jpg",0,704,"0",497,1,0
"14577889",16,"Positive","pleasant9.jpg","pic12.jpg",0,512,"0",354,1,0
"14577889",17,"Negative","unpleasant8.jpg","pic80.jpg",0,569,"0",160,1,0
"14577889",18,"Positive","pleasant2.jpg","pic49.jpg",0,220,"0",903,1,0
"14577889",19,"Positive","pleasant8.jpg","pic61.jpg",0,898,"0",554,1,0
"14577889",20,"Positive","pleasant6.jpg","pic73.jpg",0,696,"0",290,1,0
"14577889",21,"Positive","pleasant8.jpg","pic29.jpg",0,1290,"0",749,1,0
"14577889",22,"Positive","pleasant11.jpg","pic17.jpg",0,1163,"0",35,1,0
"14577889",23,"Negative","unpleasant1.jpg","pic43.jpg",0,493,"0",141,1,0
"14577889",24,"Positive","pleasant3.jpg","pic71.jpg",0,372,"0",90,1,0
"14577889",25,"Negative","unpleasant3.jpg","pic27.jpg",0,337,"0",153,1,0
"14577889",26,"Negative","unpleasant11.jpg","pic48.jpg",0,487,"0",208,1,0
"14577889",27,"Positive","pleasant4.jpg","pic54.jpg",0,475,"0",78,1,0
"14577889",28,"Negative","unpleasant4.jpg","pic66.jpg",0,496,"0",48,1,0
"14577889",29,"Negative","unpleasant6.jpg","pic47.jpg",0,1281,"0",1483,1,0
"14577889",30,"Negative","unpleasant12.jpg","pic8.jpg",0,540,"0",269,1,0
"14577889",31,"Negative","unpleasant1.jpg","pic45.jpg",0,422,"0",1965,1,0
"14577889",32,"Negative","unpleasant4.jpg","pic64.jpg",0,386,"0",677,1,0
"14577889",33,"Negative","unpleasant2.jpg","pic68.jpg",0,376,"0",126,1,0
"14577889",34,"Negative","unpleasant10.jpg","pic44.jpg",0,263,"0",221,1,0
"14577889",35,"Positive","pleasant2.jpg","pic69.jpg",0,306,"0",76,1,0
"14577889",36,"Positive","pleasant9.jpg","pic6.jpg",0,539,"0",91,1,0
"14577889",37,"Negative","unpleasant9.jpg","pic42.jpg",0,340,"0",49,1,0
"14577889",38,"Positive","pleasant5.jpg","pic62.jpg",0,308,"0",102,1,0
"14577889",39,"Positive","pleasant1.jpg","pic16.jpg",0,226,"0",135,1,0
"14577889",40,"Negative","unpleasant11.jpg","pic33.jpg",0,208,"0",74,1,0
"14577889",41,"Positive","pleasant7.jpg","pic67.jpg",0,515,"0",108,1,0
"14577889",42,"Positive","pleasant12.jpg","pic28.jpg",0,651,"0",343,1,0
"14577889",43,"Positive","pleasant10.jpg","pic26.jpg",0,615,"0",307,1,0
"14577889",44,"Positive","pleasant1.jpg","pic30.jpg",0,538,"0",354,1,0
"14577889",45,"Negative","unpleasant3.jpg","pic18.jpg",0,1759,"1",615,1,0
"14577889",46,"Negative","unpleasant7.jpg","pic9.jpg",0,1450,"1",1312,1,0
"14577889",47,"Negative","unpleasant6.jpg","pic20.jpg",0,1382,"1",1134,1,0
"14577889",48,"Negative","unpleasant8.jpg","pic74.jpg",0,525,"1",180,1,0
"14577889",49,"Negative","unpleasant5.jpg","pic78.jpg",0,775,"1",40,1,0
"14577889",50,"Positive","pleasant8.jpg","pic1.jpg",1,2323,"1",563,1,0
"14577889",51,"Positive","pleasant11.jpg","pic53.jpg",1,918,"1",234,1,0
"14577889",52,"Negative","unpleasant3.jpg","pic19.jpg",0,869,"1",104,1,0
"14577889",53,"Negative","unpleasant4.jpg","pic38.jpg",0,2886,"1",1082,1,0
"14577889",54,"Positive","pleasant4.jpg","pic34.jpg",0,1603,"1",147,1,0
"14577889",55,"Negative","unpleasant10.jpg","pic65.jpg",0,742,"1",2326,1,0
"14577889",56,"Negative","unpleasant9.jpg","pic50.jpg",0,1039,"1",67,1,0
"14577889",57,"Positive","pleasant12.jpg","pic76.jpg",1,851,"0",64,1,0
"14577889",58,"Positive","pleasant10.jpg","pic2.jpg",0,800,"1",118,1,0
"14577889",59,"Negative","unpleasant11.jpg","pic31.jpg",0,3285,"1",849,1,0
"14577889",60,"Negative","unpleasant8.jpg","pic13.jpg",0,667,"1",127,1,0
"14577889",61,"Positive","pleasant3.jpg","pic52.jpg",1,1701,"1",353,1,0
"14577889",62,"Negative","unpleasant6.jpg","pic21.jpg",0,2621,"1",405,1,0
"14577889",63,"Negative","unpleasant7.jpg","pic79.jpg",0,862,"1",1194,1,0
"14577889",64,"Negative","unpleasant5.jpg","pic75.jpg",0,679,"1",322,1,0
"14577889",65,"Negative","unpleasant12.jpg","pic63.jpg",0,687,"1",283,1,0
"14577889",66,"Negative","unpleasant1.jpg","pic10.jpg",0,634,"1",142,1,0
"14577889",67,"Positive","pleasant6.jpg","pic41.jpg",1,1190,"1",297,1,0
"14577889",68,"Positive","pleasant7.jpg","pic55.jpg",1,1282,"1",53,1,0
"14577889",69,"Positive","pleasant5.jpg","pic22.jpg",1,706,"1",983,1,0
"14577889",70,"Positive","pleasant9.jpg","pic40.jpg",1,796,"1",361,1,0
"14577891",1,"Positive","pleasant2.jpg","pic10.jpg",1,1138,"1",224,1,0
"14577891",2,"Negative","unpleasant10.jpg","pic54.jpg",0,1297,"1",230,1,0
"14577891",3,"Negative","unpleasant12.jpg","pic75.jpg",0,1483,"1",402,1,0
"14577891",4,"Negative","unpleasant1.jpg","pic74.jpg",0,1577,"1",263,1,0
"14577891",5,"Positive","pleasant7.jpg","pic34.jpg",1,1067,"1",295,1,0
"14577891",6,"Positive","pleasant5.jpg","pic60.jpg",1,653,"1",281,1,0
"14577891",7,"Negative","unpleasant11.jpg","pic7.jpg",1,1631,"0",255,1,0
"14577891",8,"Negative","unpleasant3.jpg","pic26.jpg",0,1338,"1",275,1,0
"14577891",9,"Positive","pleasant4.jpg","pic49.jpg",0,1617,"1",269,1,0
"14577891",10,"Negative","unpleasant4.jpg","pic32.jpg",0,1565,"1",273,1,0
"14577891",11,"Negative","unpleasant5.jpg","pic13.jpg",1,887,"1",259,1,0
"14577891",12,"Negative","unpleasant7.jpg","pic11.jpg",0,1466,"1",349,1,0
"14577891",13,"Negative","unpleasant9.jpg","pic63.jpg",0,1838,"0",734,1,0
"14577891",14,"Positive","pleasant6.jpg","pic37.jpg",1,1167,"0",475,1,0
"14577891",15,"Negative","unpleasant2.jpg","pic48.jpg",0,1390,"1",315,1,0
"14577891",16,"Negative","unpleasant8.jpg","pic52.jpg",0,2322,"1",202,1,0
"14577891",17,"Positive","pleasant8.jpg","pic38.jpg",1,2377,"0",314,1,0
"14577891",18,"Negative","unpleasant6.jpg","pic44.jpg",1,1465,"0",541,1,0
"14577891",19,"Negative","unpleasant7.jpg","pic56.jpg",1,1381,"0",296,1,0
"14577891",20,"Positive","pleasant3.jpg","pic62.jpg",1,1264,"0",297,1,0
"14577891",21,"Positive","pleasant10.jpg","pic12.jpg",1,2198,"1",170,1,0
"14577891",22,"Negative","unpleasant4.jpg","pic16.jpg",1,3224,"0",725,1,0
"14577891",23,"Positive","pleasant1.jpg","pic57.jpg",1,1069,"0",673,1,0
"14577891",24,"Positive","pleasant11.jpg","pic25.jpg",1,1194,"1",494,1,0
"14577891",25,"Negative","unpleasant3.jpg","pic30.jpg",0,1030,"1",276,1,0
"14577891",26,"Positive","pleasant12.jpg","pic69.jpg",1,1099,"0",700,1,0
"14577891",27,"Negative","unpleasant6.jpg","pic61.jpg",0,2161,"0",280,1,0
"14577891",28,"Positive","pleasant9.jpg","pic2.jpg",1,1209,"0",467,1,0
"14577891",29,"Positive","pleasant12.jpg","pic5.jpg",1,1244,"0",302,1,0
"14577891",30,"Positive","pleasant11.jpg","pic42.jpg",0,3053,"0",1087,1,0
"14577891",31,"Positive","pleasant6.jpg","pic51.jpg",1,1911,"1",399,1,0
"14577891",32,"Positive","pleasant3.jpg","pic27.jpg",1,926,"0",955,1,0
"14577891",33,"Negative","unpleasant8.jpg","pic19.jpg",0,1251,"1",671,1,0
"14577891",34,"Negative","unpleasant12.jpg","pic28.jpg",1,994,"0",1053,1,0
"14577891",35,"Negative","unpleasant5.jpg","pic73.jpg",1,1038,"1",1231,1,0
"14577891",36,"Positive","pleasant7.jpg","pic50.jpg",1,1592,"1",377,1,0
"14577891",37,"Positive","pleasant5.jpg","pic18.jpg",1,549,"1",323,1,0
"14577891",38,"Negative","unpleasant11.jpg","pic41.jpg",0,1580,"1",1047,1,0
"14577891",39,"Positive","pleasant9.jpg","pic6.jpg",1,747,"0",541,1,0
"14577891",40,"Positive","pleasant8.jpg","pic3.jpg",1,1184,"0",920,1,0
"14577891",41,"Negative","unpleasant9.jpg","pic4.jpg",1,3397,"0",338,1,0
"14577891",42,"Positive","pleasant2.jpg","pic78.jpg",1,1370,"1",320,1,0
"14577891",43,"Negative","unpleasant10.jpg","pic58.jpg",0,941,"1",896,1,0
"14577891",44,"Positive","pleasant4.jpg","pic71.jpg",0,1537,"1",272,1,0
"14577891",45,"Negative","unpleasant1.jpg","pic43.jpg",1,761,"1",853,1,0
"14577891",46,"Negative","unpleasant2.jpg","pic9.jpg",0,1284,"1",302,1,0
"14577891",47,"Negative","unpleasant10.jpg","pic20.jpg",0,1097,"1",262,1,0
"14577891",48,"Negative","unpleasant5.jpg","pic36.jpg",1,2394,"1",656,1,0
"14577891",49,"Positive","pleasant10.jpg","pic65.jpg",1,1036,"0",703,1,0
"14577891",50,"Negative","unpleasant6.jpg","pic67.jpg",0,919,"1",1436,1,0
"14577891",51,"Negative","unpleasant1.jpg","pic70.jpg",0,1625,"1",304,1,0
"14577891",52,"Positive","pleasant1.jpg","pic40.jpg",1,592,"1",431,1,0
"14577891",53,"Negative","unpleasant12.jpg","pic35.jpg",1,848,"1",786,1,0
"14577891",54,"Negative","unpleasant7.jpg","pic76.jpg",0,878,"1",317,1,0
"14577891",55,"Positive","pleasant6.jpg","pic29.jpg",1,854,"0",339,1,0
"14577891",56,"Negative","unpleasant4.jpg","pic31.jpg",0,846,"1",467,1,0
"14577891",57,"Negative","unpleasant8.jpg","pic45.jpg",0,859,"1",329,1,0
"14577891",58,"Positive","pleasant7.jpg","pic17.jpg",1,1190,"0",335,1,0
"14577891",59,"Negative","unpleasant2.jpg","pic79.jpg",0,1242,"1",329,1,0
"14577891",60,"Positive","pleasant8.jpg","pic72.jpg",1,1161,"1",903,1,0
"14577891",61,"Positive","pleasant3.jpg","pic46.jpg",0,783,"0",1352,1,0
"14577891",62,"Negative","unpleasant11.jpg","pic68.jpg",0,958,"1",1807,1,0
"14577891",63,"Positive","pleasant12.jpg","pic22.jpg",1,1370,"1",628,1,0
"14577891",64,"Positive","pleasant4.jpg","pic14.jpg",0,939,"0",662,1,0
"14577891",65,"Positive","pleasant1.jpg","pic23.jpg",1,2283,"0",322,1,0
"14577891",66,"Negative","unpleasant9.jpg","pic80.jpg",0,1125,"1",1045,1,0
"14577891",67,"Positive","pleasant5.jpg","pic66.jpg",1,823,"1",625,1,0
"14577891",68,"Positive","pleasant10.jpg","pic15.jpg",1,1056,"0",316,1,0
"14577891",69,"Positive","pleasant11.jpg","pic21.jpg",1,585,"0",312,1,0
"14577891",70,"Positive","pleasant2.jpg","pic64.jpg",1,706,"0",216,1,0
"14577896",1,"Negative","unpleasant4.jpg","pic35.jpg",0,3278,"1",2188,0,0
"14577896",2,"Negative","unpleasant1.jpg","pic71.jpg",0,2340,"1",1424,0,0
"14577896",3,"Negative","unpleasant6.jpg","pic59.jpg",1,3616,"1",821,0,0
"14577896",4,"Positive","pleasant1.jpg","pic26.jpg",1,1985,"1",772,0,0
"14577896",5,"Negative","unpleasant10.jpg","pic51.jpg",0,1583,"0",723,0,0
"14577896",6,"Positive","pleasant7.jpg","pic19.jpg",1,1536,"0",835,0,0
"14577896",7,"Positive","pleasant10.jpg","pic45.jpg",1,2641,"1",432,0,0
"14577896",8,"Positive","pleasant8.jpg","pic67.jpg",1,1798,"0",439,0,0
"14577896",9,"Negative","unpleasant12.jpg","pic74.jpg",0,1499,"0",661,0,0
"14577896",10,"Positive","pleasant4.jpg","pic47.jpg",0,1219,"1",390,0,0
"14577896",11,"Negative","unpleasant7.jpg","pic20.jpg",1,2692,"1",543,0,0
"14577896",12,"Positive","pleasant3.jpg","pic66.jpg",1,1234,"1",300,0,0
"14577896",13,"Negative","unpleasant3.jpg","pic54.jpg",0,1249,"0",181,0,0
"14577896",14,"Negative","unpleasant11.jpg","pic65.jpg",0,1224,"0",374,0,0
"14577896",15,"Positive","pleasant9.jpg","pic75.jpg",0,2531,"1",166,0,0
"14577896",16,"Positive","pleasant2.jpg","pic77.jpg",0,1145,"1",154,0,0
"14577896",17,"Negative","unpleasant2.jpg","pic73.jpg",0,908,"1",1962,0,0
"14577896",18,"Positive","pleasant5.jpg","pic72.jpg",1,2315,"0",206,0,0
"14577896",19,"Positive","pleasant12.jpg","pic13.jpg",0,2421,"1",1467,0,0
"14577896",20,"Negative","unpleasant5.jpg","pic69.jpg",0,1281,"1",1600,0,0
"14577896",21,"Negative","unpleasant8.jpg","pic38.jpg",0,1194,"1",834,0,0
"14577896",22,"Negative","unpleasant9.jpg","pic39.jpg",0,1267,"1",394,0,0
"14577896",23,"Positive","pleasant11.jpg","pic33.jpg",1,2566,"1",100,0,0
"14577896",24,"Positive","pleasant6.jpg","pic31.jpg",0,1171,"1",52,0,0
"14577896",25,"Negative","unpleasant9.jpg","pic56.jpg",0,1382,"1",60,0,0
"14577896",26,"Negative","unpleasant7.jpg","pic42.jpg",1,1233,"1",273,0,0
"14577896",27,"Negative","unpleasant12.jpg","pic37.jpg",0,917,"1",67,0,0
"14577896",28,"Negative","unpleasant6.jpg","pic18.jpg",1,1240,"1",811,0,0
"14577896",29,"Negative","unpleasant5.jpg","pic34.jpg",0,828,"1",2307,0,0
"14577896",30,"Negative","unpleasant2.jpg","pic40.jpg",0,1323,"1",1523,0,0
"14577896",31,"Negative","unpleasant3.jpg","pic55.jpg",0,1678,"0",4588,0,0
"14577896",32,"Positive","pleasant11.jpg","pic24.jpg",0,6004,"1",1333,0,0
"14577896",33,"Positive","pleasant9.jpg","pic76.jpg",1,1188,"0",107,0,0
"14577896",34,"Negative","unpleasant8.jpg","pic58.jpg",0,1183,"1",1336,0,0
"14577896",35,"Positive","pleasant6.jpg","pic68.jpg",1,1741,"0",742,0,0
"14577896",36,"Positive","pleasant12.jpg","pic64.jpg",0,1126,"1",1279,0,0
"14577896",37,"Positive","pleasant8.jpg","pic14.jpg",1,1076,"0",221,0,0
"14577896",38,"Negative","unpleasant1.jpg","pic27.jpg",0,3245,"1",2813,0,0
"14577896",39,"Negative","unpleasant4.jpg","pic63.jpg",0,941,"1",388,0,0
"14577896",40,"Negative","unpleasant11.jpg","pic11.jpg",0,1007,"1",152,0,0
"14577904",1,"Negative","unpleasant7.jpg","pic47.jpg",0,4006,"0",2583,1,0
"14577904",2,"Negative","unpleasant5.jpg","pic28.jpg",0,2457,"0",760,1,0
"14577904",3,"Positive","pleasant11.jpg","pic52.jpg",0,1840,"0",1249,1,0
"14577904",4,"Negative","unpleasant2.jpg","pic67.jpg",1,1434,"0",876,1,0
"14577904",5,"Negative","unpleasant8.jpg","pic65.jpg",0,1487,"1",1508,1,0
"14577904",6,"Positive","pleasant5.jpg","pic80.jpg",1,2056,"1",450,1,0
"14577904",7,"Negative","unpleasant6.jpg","pic35.jpg",1,1957,"0",566,1,0
"14577904",8,"Positive","pleasant1.jpg","pic59.jpg",1,2598,"1",367,1,0
"14577904",9,"Negative","unpleasant12.jpg","pic43.jpg",0,1271,"0",1754,1,0
"14577904",10,"Negative","unpleasant1.jpg","pic1.jpg",0,1728,"0",2276,1,0
"14577904",11,"Positive","pleasant10.jpg","pic64.jpg",1,1249,"1",1056,1,0
"14577904",12,"Positive","pleasant8.jpg","pic19.jpg",0,1304,"0",1272,1,0
"14577904",13,"Negative","unpleasant4.jpg","pic26.jpg",1,2411,"0",515,1,0
"14577904",14,"Negative","unpleasant3.jpg","pic8.jpg",1,1272,"0",263,1,0
"14577904",15,"Negative","unpleasant11.jpg","pic54.jpg",0,1084,"0",1389,1,0
"14577904",16,"Positive","pleasant9.jpg","pic36.jpg",0,1382,"0",472,1,0
"14577904",17,"Positive","pleasant3.jpg","pic78.jpg",1,2324,"0",333,1,0
"14577904",18,"Positive","pleasant12.jpg","pic18.jpg",1,2055,"0",387,1,0
"14577904",19,"Negative","unpleasant9.jpg","pic11.jpg",0,1791,"0",661,1,0
"14577904",20,"Negative","unpleasant10.jpg","pic51.jpg",0,1341,"1",591,1,0
"14577904",21,"Negative","unpleasant5.jpg","pic42.jpg",0,1188,"1",294,1,0
"14577904",22,"Negative","unpleasant2.jpg","pic49.jpg",0,2401,"1",1566,1,0
"14577904",23,"Positive","pleasant6.jpg","pic74.jpg",0,1049,"1",490,1,0
"14577904",24,"Positive","pleasant2.jpg","pic23.jpg",0,1175,"0",314,1,0
"14577904",25,"Positive","pleasant7.jpg","pic15.jpg",1,1299,"1",989,1,0
"14577904",26,"Positive","pleasant4.jpg","pic68.jpg",1,1393,"0",1425,1,0
"14577904",27,"Negative","unpleasant9.jpg","pic73.jpg",1,1453,"0",397,1,0
"14577904",28,"Negative","unpleasant3.jpg","pic2.jpg",0,738,"0",1235,1,0
"14577904",29,"Negative","unpleasant11.jpg","pic4.jpg",0,1063,"0",283,1,0
"14577904",30,"Positive","pleasant7.jpg","pic66.jpg",1,1192,"0",527,1,0
"14577904",31,"Positive","pleasant2.jpg","pic57.jpg",0,892,"0",1799,1,0
"14577904",32,"Positive","pleasant1.jpg","pic75.jpg",1,988,"0",504,1,0
"14577904",33,"Positive","pleasant5.jpg","pic22.jpg",1,1649,"0",256,1,0
"14577904",34,"Negative","unpleasant6.jpg","pic79.jpg",1,781,"0",258,1,0
"14577904",35,"Negative","unpleasant4.jpg","pic61.jpg",0,984,"0",312,1,0
"14577904",36,"Positive","pleasant9.jpg","pic31.jpg",0,1507,"0",280,1,0
"14577904",37,"Positive","pleasant12.jpg","pic5.jpg",1,1177,"0",302,1,0
"14577904",38,"Negative","unpleasant7.jpg","pic24.jpg",0,1247,"0",383,1,0
"14577904",39,"Negative","unpleasant10.jpg","pic77.jpg",1,1540,"0",285,1,0
"14577904",40,"Negative","unpleasant8.jpg","pic44.jpg",0,1273,"1",567,1,0
"14577904",41,"Negative","unpleasant1.jpg","pic34.jpg",0,1290,"1",334,1,0
"14577904",42,"Negative","unpleasant12.jpg","pic37.jpg",1,2544,"0",266,1,0
"14577904",43,"Positive","pleasant8.jpg","pic60.jpg",0,886,"0",1093,1,0
"14577904",44,"Positive","pleasant6.jpg","pic17.jpg",1,1076,"0",242,1,0
"14577904",45,"Positive","pleasant4.jpg","pic56.jpg",0,1205,"0",676,1,0
"14577904",46,"Negative","unpleasant9.jpg","pic72.jpg",1,792,"0",253,1,0
"14577904",47,"Negative","unpleasant8.jpg","pic62.jpg",0,1093,"1",233,1,0
"14577904",48,"Negative","unpleasant12.jpg","pic71.jpg",1,1058,"0",187,1,0
"14577904",49,"Positive","pleasant10.jpg","pic21.jpg",0,924,"0",274,1,0
"14577904",50,"Negative","unpleasant5.jpg","pic76.jpg",0,975,"1",555,1,0
"14577904",51,"Negative","unpleasant4.jpg","pic16.jpg",0,1041,"0",220,1,0
"14577904",52,"Negative","unpleasant2.jpg","pic39.jpg",0,1342,"1",336,1,0
"14577904",53,"Positive","pleasant11.jpg","pic38.jpg",0,1161,"0",255,1,0
"14577904",54,"Negative","unpleasant11.jpg","pic46.jpg",0,1214,"0",185,1,0
"14577904",55,"Positive","pleasant3.jpg","pic9.jpg",1,818,"1",267,1,0
"14577904",56,"Positive","pleasant1.jpg","pic41.jpg",0,898,"0",183,1,0
"14577904",57,"Positive","pleasant10.jpg","pic70.jpg",1,957,"0",259,1,0
"14577904",58,"Positive","pleasant6.jpg","pic40.jpg",0,869,"0",274,1,0
"14577904",59,"Positive","pleasant4.jpg","pic14.jpg",0,1197,"0",195,1,0
"14577904",60,"Positive","pleasant3.jpg","pic27.jpg",1,1107,"1",209,1,0
"14577904",61,"Positive","pleasant8.jpg","pic30.jpg",0,869,"0",207,1,0
"14577904",62,"Positive","pleasant9.jpg","pic6.jpg",0,1032,"0",199,1,0
"14577904",63,"Positive","pleasant2.jpg","pic33.jpg",0,1269,"0",149,1,0
"14577904",64,"Positive","pleasant5.jpg","pic55.jpg",0,757,"0",210,1,0
"14577904",65,"Negative","unpleasant10.jpg","pic58.jpg",0,823,"0",204,1,0
"14577904",66,"Negative","unpleasant7.jpg","pic48.jpg",1,936,"0",197,1,0
"14577904",67,"Positive","pleasant11.jpg","pic25.jpg",1,1099,"0",233,1,0
"14577904",68,"Positive","pleasant7.jpg","pic50.jpg",1,780,"0",183,1,0
"14577904",69,"Negative","unpleasant6.jpg","pic12.jpg",0,1151,"0",149,1,0
"14577904",70,"Negative","unpleasant1.jpg","pic32.jpg",1,943,"0",206,1,0
"14577908",1,"Positive","pleasant9.jpg","pic49.jpg",0,1947,"0",1731,1,0
"14577908",2,"Negative","unpleasant6.jpg","pic63.jpg",1,13768,"1",1424,1,0
"14577908",3,"Positive","pleasant1.jpg","pic3.jpg",1,8346,"1",1256,1,0
"14577908",4,"Positive","pleasant12.jpg","pic33.jpg",1,3116,"0",2162,1,0
"14577908",5,"Negative","unpleasant2.jpg","pic44.jpg",1,4809,"0",1772,1,0
"14577908",6,"Positive","pleasant5.jpg","pic71.jpg",0,6110,"0",1209,1,0
"14577908",7,"Negative","unpleasant3.jpg","pic75.jpg",0,6781,"1",5567,1,0
"14577908",8,"Positive","pleasant4.jpg","pic12.jpg",1,3190,"0",1675,1,0
"14577908",9,"Positive","pleasant8.jpg","pic9.jpg",0,5997,"0",606,1,0
"14577908",10,"Positive","pleasant10.jpg","pic22.jpg",1,3728,"0",1057,1,0
"14577908",11,"Negative","unpleasant7.jpg","pic31.jpg",1,2180,"0",1394,1,0
"14577908",12,"Positive","pleasant3.jpg","pic58.jpg",1,1974,"0",198,1,0
"14577908",13,"Positive","pleasant6.jpg","pic46.jpg",1,3172,"1",5356,1,0
"14577908",14,"Negative","unpleasant8.jpg","pic8.jpg",1,2261,"0",2387,1,0
"14577908",15,"Negative","unpleasant12.jpg","pic62.jpg",1,4144,"0",831,1,0
"14577908",16,"Positive","pleasant2.jpg","pic45.jpg",0,3169,"0",1948,1,0
"14577908",17,"Positive","pleasant7.jpg","pic23.jpg",1,2680,"0",1277,1,0
"14577908",18,"Negative","unpleasant11.jpg","pic74.jpg",1,3433,"0",903,1,0
"14577908",19,"Positive","pleasant11.jpg","pic16.jpg",1,3343,"0",738,1,0
"14577908",20,"Positive","pleasant4.jpg","pic43.jpg",1,1834,"0",262,1,0
"14577908",21,"Negative","unpleasant9.jpg","pic70.jpg",1,2319,"0",183,1,0
"14577908",22,"Negative","unpleasant10.jpg","pic19.jpg",0,5625,"0",1603,1,0
"14577908",23,"Positive","pleasant7.jpg","pic13.jpg",1,2336,"0",640,1,0
"14577908",24,"Positive","pleasant1.jpg","pic32.jpg",1,2393,"0",599,1,0
"14577908",25,"Negative","unpleasant1.jpg","pic34.jpg",1,2143,"0",404,1,0
"14577908",26,"Positive","pleasant2.jpg","pic57.jpg",0,5026,"0",2836,1,0
"14577908",27,"Negative","unpleasant5.jpg","pic27.jpg",1,2370,"0",2096,1,0
"14577908",28,"Positive","pleasant10.jpg","pic38.jpg",1,2029,"0",474,1,0
"14577908",29,"Positive","pleasant12.jpg","pic80.jpg",1,1458,"0",464,1,0
"14577908",30,"Negative","unpleasant4.jpg","pic73.jpg",1,1237,"0",782,1,0
"14577908",31,"Positive","pleasant11.jpg","pic55.jpg",1,1308,"0",697,1,0
"14577908",32,"Negative","unpleasant2.jpg","pic21.jpg",1,1430,"0",383,1,0
"14577908",33,"Negative","unpleasant6.jpg","pic36.jpg",0,5660,"0",1678,1,0
"14577908",34,"Negative","unpleasant5.jpg","pic59.jpg",1,2535,"0",583,1,0
"14577908",35,"Positive","pleasant5.jpg","pic28.jpg",1,1806,"0",213,1,0
"14577908",36,"Positive","pleasant9.jpg","pic64.jpg",1,1543,"0",213,1,0
"14577908",37,"Positive","pleasant6.jpg","pic26.jpg",1,1416,"0",430,1,0
"14577908",38,"Positive","pleasant8.jpg","pic66.jpg",1,2357,"0",2480,1,0
"14577908",39,"Negative","unpleasant3.jpg","pic25.jpg",1,1581,"0",772,1,0
"14577908",40,"Positive","pleasant3.jpg","pic51.jpg",1,1260,"0",1144,1,0
"14577908",41,"Positive","pleasant4.jpg","pic7.jpg",1,969,"0",546,1,0
"14577908",42,"Negative","unpleasant11.jpg","pic54.jpg",1,2204,"0",30,1,0
"14577908",43,"Positive","pleasant6.jpg","pic50.jpg",1,974,"0",124,1,0
"14577908",44,"Positive","pleasant8.jpg","pic18.jpg",1,1342,"0",1281,1,0
"14577908",45,"Positive","pleasant12.jpg","pic60.jpg",1,1680,"0",245,1,0
"14577908",46,"Negative","unpleasant7.jpg","pic53.jpg",1,1031,"0",723,1,0
"14577908",47,"Negative","unpleasant12.jpg","pic41.jpg",0,4989,"0",3679,1,0
"14577908",48,"Negative","unpleasant1.jpg","pic52.jpg",1,2981,"0",307,1,0
"14577908",49,"Positive","pleasant11.jpg","pic67.jpg",1,2867,"0",4,1,0
"14577908",50,"Positive","pleasant3.jpg","pic47.jpg",1,3809,"1",2123,1,0
"14577908",51,"Negative","unpleasant10.jpg","pic79.jpg",1,2342,"0",2516,1,0
"14577908",52,"Negative","unpleasant4.jpg","pic2.jpg",0,6682,"1",4603,1,0
"14577908",53,"Positive","pleasant5.jpg","pic37.jpg",1,1922,"0",180,1,0
"14577908",54,"Positive","pleasant7.jpg","pic40.jpg",1,1289,"0",3384,1,0
"14577908",55,"Negative","unpleasant8.jpg","pic20.jpg",1,1183,"0",426,1,0
"14577908",56,"Positive","pleasant9.jpg","pic29.jpg",1,1311,"0",242,1,0
"14577908",57,"Positive","pleasant1.jpg","pic1.jpg",1,6327,"0",129,1,0
"14577908",58,"Negative","unpleasant9.jpg","pic35.jpg",1,2068,"0",38,1,0
"14577908",59,"Negative","unpleasant11.jpg","pic65.jpg",1,1504,"0",144,1,0
"14577908",60,"Negative","unpleasant5.jpg","pic24.jpg",1,1375,"0",219,1,0
"14577908",61,"Negative","unpleasant12.jpg","pic5.jpg",1,1242,"0",15,1,0
"14577908",62,"Negative","unpleasant7.jpg","pic61.jpg",1,1510,"0",1087,1,0
"14577908",63,"Negative","unpleasant3.jpg","pic10.jpg",1,1442,"0",356,1,0
"14577908",64,"Negative","unpleasant9.jpg","pic69.jpg",1,1766,"0",207,1,0
"14577908",65,"Negative","unpleasant6.jpg","pic78.jpg",1,1996,"0",56,1,0
"14577908",66,"Negative","unpleasant1.jpg","pic77.jpg",1,1460,"0",50,1,0
"14577908",67,"Negative","unpleasant2.jpg","pic72.jpg",1,1049,"0",156,1,0
"14577908",68,"Positive","pleasant2.jpg","pic30.jpg",1,1185,"0",1220,1,0
"14577908",69,"Negative","unpleasant4.jpg","pic14.jpg",1,2861,"0",207,1,0
"14577908",70,"Negative","unpleasant10.jpg","pic11.jpg",1,1631,"0",5,1,0
"14577909",1,"Positive","pleasant1.jpg","pic57.jpg",1,1584,"1",286,1,0
"14577909",2,"Negative","unpleasant7.jpg","pic2.jpg",0,4919,"1",2033,1,0
"14577909",3,"Negative","unpleasant8.jpg","pic10.jpg",1,15522,"1",5703,1,0
"14577909",4,"Positive","pleasant6.jpg","pic77.jpg",1,2121,"1",952,1,0
"14577909",5,"Negative","unpleasant10.jpg","pic42.jpg",1,1454,"1",532,1,0
"14577909",6,"Negative","unpleasant1.jpg","pic23.jpg",0,3256,"1",1048,1,0
"14577909",7,"Positive","pleasant2.jpg","pic39.jpg",1,1261,"1",254,1,0
"14577909",8,"Negative","unpleasant9.jpg","pic5.jpg",1,1739,"1",213,1,0
"14577909",9,"Negative","unpleasant5.jpg","pic8.jpg",0,6965,"1",379,1,0
"14577909",10,"Negative","unpleasant11.jpg","pic25.jpg",1,1121,"1",270,1,0
"14577909",11,"Negative","unpleasant3.jpg","pic11.jpg",0,1707,"1",18,1,0
"14577909",12,"Negative","unpleasant2.jpg","pic76.jpg",1,1320,"1",180,1,0
"14577909",13,"Positive","pleasant4.jpg","pic28.jpg",1,1377,"1",89,1,0
"14577909",14,"Positive","pleasant9.jpg","pic74.jpg",1,1382,"1",121,1,0
"14577909",15,"Negative","unpleasant6.jpg","pic9.jpg",0,2673,"1",120,1,0
"14577909",16,"Negative","unpleasant12.jpg","pic70.jpg",1,1301,"1",208,1,0
"14577909",17,"Negative","unpleasant4.jpg","pic44.jpg",0,2088,"1",28,1,0
"14577909",18,"Negative","unpleasant11.jpg","pic51.jpg",1,1077,"1",550,1,0
"14577909",19,"Negative","unpleasant9.jpg","pic21.jpg",1,1114,"1",107,1,0
"14577909",20,"Negative","unpleasant1.jpg","pic52.jpg",1,982,"1",213,1,0
"14577909",21,"Negative","unpleasant8.jpg","pic71.jpg",1,3327,"1",149,1,0
"14577909",22,"Positive","pleasant7.jpg","pic56.jpg",1,943,"1",161,1,0
"14577909",23,"Positive","pleasant5.jpg","pic48.jpg",1,1027,"1",145,1,0
"14577909",24,"Negative","unpleasant6.jpg","pic31.jpg",0,1507,"1",188,1,0
"14577909",25,"Positive","pleasant8.jpg","pic46.jpg",1,1737,"1",91,1,0
"14577909",26,"Negative","unpleasant10.jpg","pic59.jpg",1,2429,"1",41,1,0
"14577909",27,"Positive","pleasant11.jpg","pic18.jpg",1,926,"1",55,1,0
"14577909",28,"Positive","pleasant3.jpg","pic65.jpg",1,804,"1",41,1,0
"14577909",29,"Negative","unpleasant12.jpg","pic32.jpg",1,1052,"1",81,1,0
"14577909",30,"Negative","unpleasant7.jpg","pic75.jpg",0,1308,"1",3,1,0
"14577909",31,"Negative","unpleasant2.jpg","pic37.jpg",0,1393,"1",6,1,0
"14577909",32,"Negative","unpleasant3.jpg","pic58.jpg",0,1262,"1",1443,1,0
"14577909",33,"Negative","unpleasant4.jpg","pic7.jpg",0,1101,"1",2010,1,0
"14577909",34,"Negative","unpleasant5.jpg","pic15.jpg",1,1816,"1",623,1,0
"14577909",35,"Positive","pleasant12.jpg","pic72.jpg",1,1338,"1",104,1,0
"14577909",36,"Positive","pleasant10.jpg","pic68.jpg",1,934,"1",68,1,0
"14577909",37,"Positive","pleasant8.jpg","pic16.jpg",1,1770,"1",130,1,0
"14577909",38,"Positive","pleasant10.jpg","pic41.jpg",1,970,"1",54,1,0
"14577909",39,"Positive","pleasant5.jpg","pic3.jpg",1,783,"1",65,1,0
"14577909",40,"Positive","pleasant4.jpg","pic13.jpg",1,1425,"1",59,1,0
"14577909",41,"Negative","unpleasant10.jpg","pic60.jpg",0,1901,"1",2262,1,0
"14577909",42,"Positive","pleasant6.jpg","pic43.jpg",1,1113,"1",86,1,0
"14577909",43,"Negative","unpleasant7.jpg","pic79.jpg",0,1623,"1",1910,1,0
"14577909",44,"Positive","pleasant1.jpg","pic40.jpg",1,1114,"1",80,1,0
"14577909",45,"Positive","pleasant12.jpg","pic19.jpg",1,866,"1",104,1,0
"14577909",46,"Negative","unpleasant5.jpg","pic78.jpg",1,4635,"1",168,1,0
"14577909",47,"Positive","pleasant9.jpg","pic29.jpg",1,976,"1",122,1,0
"14577909",48,"Negative","unpleasant1.jpg","pic66.jpg",0,1108,"1",2959,1,0
"14577909",49,"Positive","pleasant11.jpg","pic53.jpg",1,1077,"1",436,1,0
"14577909",50,"Positive","pleasant7.jpg","pic47.jpg",1,5166,"1",120,1,0
"14577909",51,"Positive","pleasant2.jpg","pic38.jpg",1,1120,"1",294,1,0
"14577909",52,"Positive","pleasant3.jpg","pic62.jpg",1,822,"1",147,1,0
"14577909",53,"Negative","unpleasant8.jpg","pic26.jpg",1,969,"1",85,1,0
"14577909",54,"Positive","pleasant5.jpg","pic24.jpg",1,806,"1",57,1,0
"14577909",55,"Negative","unpleasant4.jpg","pic36.jpg",0,1207,"1",17,1,0
"14577909",56,"Negative","unpleasant11.jpg","pic30.jpg",1,970,"1",136,1,0
"14577909",57,"Positive","pleasant10.jpg","pic49.jpg",1,775,"1",96,1,0
"14577909",58,"Negative","unpleasant6.jpg","pic73.jpg",1,1017,"1",526,1,0
"14577909",59,"Positive","pleasant7.jpg","pic14.jpg",1,769,"1",147,1,0
"14577909",60,"Positive","pleasant4.jpg","pic34.jpg",1,791,"1",114,1,0
"14577909",61,"Positive","pleasant2.jpg","pic50.jpg",1,770,"1",97,1,0
"14577909",62,"Positive","pleasant12.jpg","pic45.jpg",1,756,"1",82,1,0
"14577909",63,"Positive","pleasant8.jpg","pic64.jpg",1,818,"1",31,1,0
"14577909",64,"Positive","pleasant6.jpg","pic35.jpg",1,823,"1",70,1,0
"14577909",65,"Negative","unpleasant2.jpg","pic69.jpg",0,1291,"1",59,1,0
"14577909",66,"Positive","pleasant1.jpg","pic33.jpg",1,975,"1",286,1,0
"14577909",67,"Positive","pleasant9.jpg","pic54.jpg",1,2202,"1",118,1,0
"14577909",68,"Negative","unpleasant9.jpg","pic80.jpg",0,2983,"1",293,1,0
"14577909",69,"Negative","unpleasant3.jpg","pic63.jpg",0,1615,"1",189,1,0
"14577909",70,"Positive","pleasant3.jpg","pic22.jpg",1,1441,"1",185,1,0
"14577913",1,"Positive","pleasant12.jpg","pic72.jpg",0,5592,"0",873,1,0
"14577913",2,"Negative","unpleasant10.jpg","pic45.jpg",0,1748,"0",4487,1,0
"14577913",3,"Negative","unpleasant11.jpg","pic9.jpg",0,2362,"0",313,1,0
"14577913",4,"Positive","pleasant10.jpg","pic3.jpg",0,1940,"1",3490,1,0
"14577913",5,"Negative","unpleasant3.jpg","pic39.jpg",1,2131,"1",1257,1,0
"14577913",6,"Positive","pleasant3.jpg","pic66.jpg",0,2154,"1",805,1,0
"14577913",7,"Negative","unpleasant4.jpg","pic73.jpg",0,2547,"1",247,1,0
"14577913",8,"Negative","unpleasant1.jpg","pic25.jpg",1,4894,"0",452,1,0
"14577913",9,"Negative","unpleasant7.jpg","pic56.jpg",0,3276,"0",369,1,0
"14577913",10,"Negative","unpleasant9.jpg","pic61.jpg",1,4583,"1",308,1,0
"14577913",11,"Negative","unpleasant8.jpg","pic50.jpg",1,2084,"1",285,1,0
"14577913",12,"Positive","pleasant2.jpg","pic15.jpg",0,1677,"1",1015,1,0
"14577913",13,"Positive","pleasant1.jpg","pic54.jpg",0,1172,"1",145,1,0
"14577913",14,"Negative","unpleasant12.jpg","pic79.jpg",0,3248,"0",361,1,0
"14577913",15,"Positive","pleasant8.jpg","pic8.jpg",0,1434,"1",391,1,0
"14577913",16,"Negative","unpleasant5.jpg","pic37.jpg",1,3668,"1",9,1,0
"14577913",17,"Negative","unpleasant2.jpg","pic44.jpg",1,1444,"1",1851,1,0
"14577913",18,"Positive","pleasant6.jpg","pic29.jpg",0,3215,"1",330,1,0
"14577913",19,"Negative","unpleasant6.jpg","pic2.jpg",1,4503,"1",379,1,0
"14577913",20,"Negative","unpleasant7.jpg","pic18.jpg",0,3941,"0",432,1,0
"14577913",21,"Negative","unpleasant8.jpg","pic68.jpg",1,1639,"1",205,1,0
"14577913",22,"Positive","pleasant4.jpg","pic40.jpg",1,5760,"0",338,1,0
"14577913",23,"Positive","pleasant9.jpg","pic16.jpg",0,2909,"1",387,1,0
"14577913",24,"Negative","unpleasant3.jpg","pic10.jpg",1,1622,"1",395,1,0
"14577913",25,"Positive","pleasant5.jpg","pic27.jpg",0,1919,"1",206,1,0
"14577913",26,"Positive","pleasant7.jpg","pic32.jpg",0,1187,"1",195,1,0
"14577913",27,"Negative","unpleasant4.jpg","pic43.jpg",1,3431,"0",145,1,0
"14577913",28,"Positive","pleasant11.jpg","pic7.jpg",0,1520,"1",141,1,0
"14577913",29,"Negative","unpleasant5.jpg","pic34.jpg",1,5544,"1",204,1,0
"14577913",30,"Positive","pleasant11.jpg","pic60.jpg",0,2918,"1",514,1,0
"14577913",31,"Positive","pleasant10.jpg","pic55.jpg",0,1301,"1",223,1,0
"14577913",32,"Positive","pleasant9.jpg","pic35.jpg",0,676,"1",123,1,0
"14577913",33,"Negative","unpleasant9.jpg","pic14.jpg",1,2343,"1",956,1,0
"14577913",34,"Positive","pleasant1.jpg","pic19.jpg",0,3896,"1",261,1,0
"14577913",35,"Negative","unpleasant2.jpg","pic6.jpg",1,991,"1",185,1,0
"14577913",36,"Negative","unpleasant11.jpg","pic41.jpg",0,3882,"0",251,1,0
"14577913",37,"Positive","pleasant7.jpg","pic48.jpg",0,2519,"1",415,1,0
"14577913",38,"Positive","pleasant12.jpg","pic36.jpg",1,2800,"0",730,1,0
"14577913",39,"Negative","unpleasant1.jpg","pic53.jpg",1,2326,"1",448,1,0
"14577913",40,"Negative","unpleasant12.jpg","pic75.jpg",0,1494,"0",47,1,0
"14577913",41,"Negative","unpleasant10.jpg","pic28.jpg",0,3182,"0",277,1,0
"14577913",42,"Positive","pleasant4.jpg","pic21.jpg",0,2815,"1",87,1,0
"14577913",43,"Negative","unpleasant6.jpg","pic46.jpg",0,5257,"1",236,1,0
"14577913",44,"Negative","unpleasant4.jpg","pic26.jpg",1,1615,"0",209,1,0
"14577913",45,"Negative","unpleasant9.jpg","pic17.jpg",1,688,"0",411,1,0
"14577913",46,"Positive","pleasant2.jpg","pic24.jpg",0,1150,"1",1138,1,0
"14577913",47,"Negative","unpleasant1.jpg","pic67.jpg",1,2091,"1",68,1,0
"14577913",48,"Positive","pleasant8.jpg","pic69.jpg",1,1416,"1",401,1,0
"14577913",49,"Positive","pleasant6.jpg","pic74.jpg",1,711,"0",1472,1,0
"14577913",50,"Negative","unpleasant7.jpg","pic47.jpg",1,5681,"1",50,1,0
"14577913",51,"Negative","unpleasant5.jpg","pic80.jpg",1,2326,"0",276,1,0
"14577913",52,"Positive","pleasant5.jpg","pic51.jpg",0,1172,"1",191,1,0
"14577913",53,"Negative","unpleasant11.jpg","pic58.jpg",1,3229,"0",338,1,0
"14577913",54,"Positive","pleasant3.jpg","pic59.jpg",0,1817,"1",345,1,0
"14577913",55,"Positive","pleasant5.jpg","pic65.jpg",1,3750,"1",73,1,0
"14577913",56,"Positive","pleasant2.jpg","pic57.jpg",0,1480,"1",197,1,0
"14577913",57,"Positive","pleasant12.jpg","pic38.jpg",0,5396,"0",439,1,0
"14577913",58,"Negative","unpleasant12.jpg","pic5.jpg",0,1778,"0",331,1,0
"14577913",59,"Negative","unpleasant3.jpg","pic22.jpg",1,1021,"1",74,1,0
"14577913",60,"Positive","pleasant6.jpg","pic64.jpg",0,2219,"1",86,1,0
"14577913",61,"Negative","unpleasant6.jpg","pic76.jpg",1,2216,"1",617,1,0
"14577913",62,"Positive","pleasant1.jpg","pic4.jpg",0,2359,"1",743,1,0
"14577913",63,"Positive","pleasant4.jpg","pic77.jpg",0,2254,"1",348,1,0
"14577913",64,"Positive","pleasant10.jpg","pic1.jpg",0,2060,"1",263,1,0
"14577913",65,"Positive","pleasant7.jpg","pic20.jpg",0,625,"1",507,1,0
"14577913",66,"Positive","pleasant3.jpg","pic71.jpg",0,630,"1",244,1,0
"14577913",67,"Positive","pleasant11.jpg","pic52.jpg",0,1201,"1",158,1,0
"14577913",68,"Negative","unpleasant8.jpg","pic62.jpg",1,2367,"1",259,1,0
"14577913",69,"Positive","pleasant9.jpg","pic30.jpg",0,1421,"1",223,1,0
"14577913",70,"Negative","unpleasant2.jpg","pic42.jpg",1,1022,"1",269,1,0
"14577934",1,"Negative","unpleasant4.jpg","pic43.jpg",0,3036,"1",3055,1,0
"14577934",2,"Positive","pleasant5.jpg","pic24.jpg",1,6888,"1",168,1,0
"14577934",3,"Negative","unpleasant1.jpg","pic28.jpg",0,10576,"0",1187,1,0
"14577934",4,"Positive","pleasant10.jpg","pic49.jpg",1,6680,"1",473,1,0
"14577934",5,"Negative","unpleasant7.jpg","pic64.jpg",0,7735,"1",456,1,0
"14577934",6,"Negative","unpleasant3.jpg","pic47.jpg",0,6202,"1",469,1,0
"14577934",7,"Positive","pleasant6.jpg","pic68.jpg",1,4734,"1",446,1,0
"14577934",8,"Positive","pleasant8.jpg","pic42.jpg",1,7047,"1",513,1,0
"14577934",9,"Positive","pleasant4.jpg","pic46.jpg",1,11369,"0",438,1,0
"14577934",10,"Negative","unpleasant2.jpg","pic52.jpg",1,4927,"0",471,1,0
"14577934",11,"Negative","unpleasant11.jpg","pic67.jpg",1,4681,"0",367,1,0
"14577934",12,"Negative","unpleasant5.jpg","pic31.jpg",0,2133,"1",587,1,0
"14577934",13,"Negative","unpleasant8.jpg","pic78.jpg",1,5206,"0",459,1,0
"14577934",14,"Negative","unpleasant9.jpg","pic22.jpg",1,4156,"0",810,1,0
"14577934",15,"Negative","unpleasant6.jpg","pic65.jpg",0,6669,"1",430,1,0
"14577934",16,"Negative","unpleasant12.jpg","pic6.jpg",1,3551,"0",662,1,0
"14577934",17,"Negative","unpleasant10.jpg","pic51.jpg",0,2174,"1",443,1,0
"14577934",18,"Positive","pleasant7.jpg","pic63.jpg",1,2279,"0",791,1,0
"14577934",19,"Positive","pleasant1.jpg","pic72.jpg",1,1594,"1",566,1,0
"14577934",20,"Negative","unpleasant11.jpg","pic45.jpg",1,3492,"0",447,1,0
"14577934",21,"Positive","pleasant3.jpg","pic20.jpg",1,1426,"1",404,1,0
"14577934",22,"Positive","pleasant12.jpg","pic54.jpg",1,1577,"1",4317,1,0
"14577934",23,"Negative","unpleasant3.jpg","pic13.jpg",0,3275,"1",476,1,0
"14577934",24,"Negative","unpleasant1.jpg","pic61.jpg",0,1716,"1",707,1,0
"14577934",25,"Negative","unpleasant5.jpg","pic14.jpg",0,1235,"1",596,1,0
"14577934",26,"Positive","pleasant9.jpg","pic48.jpg",1,1607,"1",475,1,0
"14577934",27,"Positive","pleasant11.jpg","pic26.jpg",1,4267,"0",1076,1,0
"14577934",28,"Negative","unpleasant4.jpg","pic80.jpg",0,2037,"1",631,1,0
"14577934",29,"Negative","unpleasant2.jpg","pic32.jpg",0,2728,"1",456,1,0
"14577934",30,"Positive","pleasant2.jpg","pic23.jpg",1,1402,"0",581,1,0
"14577934",31,"Positive","pleasant10.jpg","pic74.jpg",1,2327,"1",376,1,0
"14577934",32,"Negative","unpleasant7.jpg","pic19.jpg",0,1907,"1",708,1,0
"14577934",33,"Negative","unpleasant12.jpg","pic25.jpg",1,1130,"0",438,1,0
"14577934",34,"Negative","unpleasant9.jpg","pic38.jpg",0,1752,"1",437,1,0
"14577934",35,"Positive","pleasant8.jpg","pic5.jpg",1,2346,"1",415,1,0
"14577934",36,"Positive","pleasant3.jpg","pic18.jpg",1,938,"1",479,1,0
"14577934",37,"Negative","unpleasant6.jpg","pic9.jpg",0,1376,"1",444,1,0
"14577934",38,"Negative","unpleasant10.jpg","pic4.jpg",0,997,"1",473,1,0
"14577934",39,"Positive","pleasant7.jpg","pic40.jpg",1,944,"1",415,1,0
"14577934",40,"Positive","pleasant4.jpg","pic60.jpg",1,2314,"0",1185,1,0
"14577934",41,"Positive","pleasant2.jpg","pic77.jpg",1,1443,"0",479,1,0
"14577934",42,"Positive","pleasant11.jpg","pic58.jpg",1,3613,"0",474,1,0
"14577934",43,"Positive","pleasant6.jpg","pic1.jpg",1,2897,"1",393,1,0
"14577934",44,"Negative","unpleasant8.jpg","pic29.jpg",1,3180,"0",554,1,0
"14577934",45,"Positive","pleasant9.jpg","pic55.jpg",1,2046,"1",425,1,0
"14577934",46,"Negative","unpleasant6.jpg","pic56.jpg",0,2378,"1",495,1,0
"14577934",47,"Negative","unpleasant4.jpg","pic16.jpg",0,879,"1",408,1,0
"14577934",48,"Positive","pleasant1.jpg","pic70.jpg",1,1370,"1",423,1,0
"14577934",49,"Positive","pleasant12.jpg","pic41.jpg",1,904,"1",793,1,0
"14577934",50,"Positive","pleasant5.jpg","pic33.jpg",1,860,"1",389,1,0
"14577934",51,"Positive","pleasant2.jpg","pic57.jpg",1,3329,"0",359,1,0
"14577934",52,"Positive","pleasant6.jpg","pic21.jpg",1,2318,"1",371,1,0
"14577934",53,"Positive","pleasant4.jpg","pic15.jpg",1,1040,"1",415,1,0
"14577934",54,"Negative","unpleasant8.jpg","pic36.jpg",1,803,"0",337,1,0
"14577934",55,"Negative","unpleasant1.jpg","pic3.jpg",0,2190,"1",347,1,0
"14577934",56,"Negative","unpleasant2.jpg","pic27.jpg",0,666,"1",466,1,0
"14577934",57,"Positive","pleasant1.jpg","pic73.jpg",1,1882,"1",997,1,0
"14577934",58,"Positive","pleasant10.jpg","pic66.jpg",1,943,"1",284,1,0
"14577934",59,"Negative","unpleasant10.jpg","pic7.jpg",0,1036,"1",448,1,0
"14577934",60,"Positive","pleasant8.jpg","pic59.jpg",0,1319,"1",6561,1,0
"14577934",61,"Negative","unpleasant12.jpg","pic76.jpg",1,3021,"1",472,1,0
"14577934",62,"Positive","pleasant3.jpg","pic35.jpg",1,672,"1",369,1,0
"14577934",63,"Positive","pleasant11.jpg","pic62.jpg",1,1765,"1",773,1,0
"14577934",64,"Positive","pleasant7.jpg","pic44.jpg",1,600,"0",1067,1,0
"14577934",65,"Positive","pleasant9.jpg","pic34.jpg",1,1197,"1",936,1,0
"14577934",66,"Negative","unpleasant9.jpg","pic79.jpg",1,2797,"0",682,1,0
"14577934",67,"Negative","unpleasant11.jpg","pic12.jpg",1,1978,"0",340,1,0
"14577934",68,"Negative","unpleasant7.jpg","pic50.jpg",0,1948,"0",1915,1,0
"14577934",69,"Positive","pleasant5.jpg","pic69.jpg",1,3889,"1",1378,1,0
"14577934",70,"Negative","unpleasant5.jpg","pic30.jpg",0,1069,"1",399,1,0
"14577935",1,"Negative","unpleasant7.jpg","pic6.jpg",0,1680,"1",538,1,0
"14577935",2,"Negative","unpleasant5.jpg","pic37.jpg",0,2740,"1",645,1,0
"14577935",3,"Negative","unpleasant10.jpg","pic45.jpg",0,2020,"1",786,1,0
